# www.neaspec.com
# Scan:	 	AFM
# Project:	 	20251007_PS
# Description:	 	
# Date:	 	10/07/2025 13:24:33
# Scanner Center Position (X, Y):	[µm]	49.99	50.01	 
# Rotation:	[°]	0	 	 
# Scan Area (X, Y, Z):	[µm]	5.000	5.000	0.000
# Pixel Area (X, Y, Z):	[px]	100	100	1
# Averaging:	 	1	 	 
# Integration time:	[ms]	5	 	 
# Laser Source:	 	4.5-15 µm nano-FTIR laser
# Detector:	 	R
# Target Wavelength:	[µm]	7.502	 	 
# Demodulation Mode:	 	Fourier
# Tip Frequency:	[Hz]	241,340.500	 	 
# Tip Amplitude:	[mV]	45.700	 	 
# Tapping Amplitude:	[nm]	76.314	 	 
# Modulation Frequency:	[Hz]	0.000	 	 
# Modulation Amplitude:	[mV]	0.000	 	 
# Modulation Offset:	[mV]	0.000	 	 
# Setpoint:	[%]	79.75	 	 
# Regulator (P, I, D):	 	4.206850	8.625812	1.000000
# Tip Potential:	[mV]	0.000	 	 
# M1A Scaling:	[nm/V]	0.426	 	 
# M1A Cantilever Factor:	 	1,000	 	 
# Q-Factor:	 	487.4	 	 
# Version:	 	2.1.11536.0
63.631485      	63.994637      	63.73673       	63.948124      	63.69974       	63.899097      	63.596004      	64.73105       	63.0377        	56.29755       	55.73185       	55.809433      	55.999         	56.010796      	55.848286      	56.150467      	56.387108      	56.356926      	56.74186       	56.823822      	57.155727      	57.278595      	57.388657      	57.461163      	57.393238      	57.68927       	57.625973      	57.249275      	57.363323      	57.38893       	57.374172      	57.326675      	57.32218       	57.580242      	57.407726      	57.659897      	57.609077      	57.48969       	57.12093       	57.292187      	58.126186      	57.502926      	58.24646       	58.30186       	58.395687      	58.38529       	57.702686      	58.25172       	58.087616      	57.341976      	57.708435      	57.659782      	57.23012       	56.815384      	56.72105       	58.914066      	62.252556      	63.34721       	63.576904      	63.522545      	63.92013       	63.54637       	63.610367      	63.74412       	63.469482      	63.740986      	63.791527      	63.79699       	63.89938       	63.887516      	63.79914       	63.77699       	63.930008      	63.449917      	63.67513       	63.318188      	63.188843      	63.48477       	63.140045      	63.24685       	63.43906       	63.29624       	63.361534      	63.599026      	63.34109       	63.46887       	63.258015      	63.73029       	63.597748      	63.65525       	63.74333       	63.76463       	63.90476       	63.733814      	63.712776      	63.904015      	63.431713      	63.60661       	63.83731       	63.7267        	
63.750595      	64.22913       	64.32532       	64.07478       	64.03539       	64.11789       	63.891582      	64.46672       	65.44408       	57.57351       	56.124184      	56.061832      	56.199253      	56.257645      	56.28953       	56.4348        	56.400608      	56.645096      	56.906708      	57.18758       	57.044556      	57.155815      	57.465527      	57.442924      	57.6173        	57.506397      	57.615593      	57.73491       	57.447655      	57.594692      	57.410595      	57.53064       	57.63012       	57.630547      	57.627716      	57.777138      	57.735706      	57.77465       	57.809044      	57.73372       	57.686695      	57.990883      	58.218204      	58.41191       	57.805504      	58.091095      	57.714703      	56.66723       	57.78558       	57.499638      	57.685356      	57.215904      	57.862957      	57.63979       	57.192226      	58.66266       	61.915066      	64.0407        	63.88492       	64.12449       	63.932243      	63.92082       	63.730343      	64.04752       	64.00415       	64.07155       	64.158356      	64.08442       	64.21871       	64.1547        	63.980743      	64.057884      	63.701725      	63.874687      	63.82827       	63.678288      	63.853863      	63.7056        	63.907433      	63.51328       	63.629284      	63.75045       	63.88666       	64.02493       	63.7577        	63.79568       	63.637817      	63.953476      	63.763187      	64.03228       	64.039024      	63.844646      	64.18036       	63.966763      	63.91009       	64.108826      	64.02978       	64.091385      	64.1401        	64.23865       	
64.143814      	63.969322      	64.25743       	63.967735      	64.02479       	64.03589       	63.689445      	64.10205       	65.70152       	57.917416      	56.05734       	56.10474       	56.37522       	56.30021       	56.275005      	56.536537      	56.40118       	56.482773      	56.794342      	56.852222      	57.221237      	57.209255      	57.654686      	57.6389        	57.442688      	57.746773      	57.671925      	57.64787       	57.59501       	57.839012      	57.47439       	57.547306      	57.695396      	57.62257       	57.674263      	57.479084      	57.6395        	57.421513      	57.555798      	57.52099       	57.361027      	57.04979       	57.608047      	57.397133      	57.754986      	57.55468       	57.87105       	57.65939       	57.97516       	58.541733      	58.21242       	57.983665      	58.734947      	58.448326      	59.20163       	60.160328      	63.19012       	64.04997       	63.8262        	64.2792        	64.09869       	64.15092       	63.884613      	63.89453       	63.86276       	64.13183       	63.989433      	64.01735       	64.02303       	64.3931        	64.10965       	63.863197      	63.73027       	63.684853      	63.50037       	63.654514      	63.65039       	63.8777        	63.665203      	63.41811       	63.560886      	64.20208       	63.751495      	63.820145      	63.908756      	63.912037      	63.52455       	63.808567      	63.78641       	63.526455      	63.942116      	64.1285        	64.286476      	64.15686       	64.0096        	63.96903       	64.12611       	64.12309       	64.0703        	63.919876      	
64.037186      	64.18469       	63.97008       	64.329346      	63.658085      	63.955063      	64.0133        	63.576107      	66.265175      	60.700787      	56.33534       	56.02344       	55.973118      	56.273743      	56.31624       	56.319016      	56.526005      	56.588932      	56.98011       	56.77692       	57.216263      	57.319786      	57.613934      	57.70817       	57.6742        	57.87396       	57.626648      	57.81246       	57.67254       	57.501736      	57.803246      	57.732304      	57.526398      	57.41477       	57.467464      	57.339302      	57.335007      	57.33089       	57.11551       	57.139576      	57.10031       	56.39638       	55.16806       	59.162865      	59.412567      	59.06809       	59.34942       	59.83934       	59.648743      	59.70043       	59.186394      	61.244698      	60.780262      	60.183567      	60.932083      	62.401936      	64.159294      	64.11579       	64.06729       	64.23318       	64.02649       	64.20712       	64.38212       	64.39933       	64.227615      	64.01214       	64.047424      	64.068245      	64.033676      	64.06974       	64.28777       	64.04837       	64.21514       	63.785034      	63.937183      	63.599934      	63.832413      	63.894196      	63.75632       	63.92034       	63.775856      	63.334698      	63.85189       	63.346817      	63.87765       	63.935883      	63.76201       	63.941673      	63.74087       	64.09817       	63.954346      	64.11868       	64.385025      	64.00239       	64.01791       	64.337425      	64.107735      	64.20967       	64.17951       	64.20809       	
64.22422       	64.255325      	64.56544       	64.10543       	64.16226       	64.2614        	64.02804       	63.78673       	65.57619       	63.714485      	56.740166      	56.369457      	56.4642        	56.299797      	56.331432      	56.27842       	56.453056      	56.645565      	56.89933       	57.116844      	57.0392        	57.458984      	57.540825      	57.36399       	57.998795      	57.741837      	57.86099       	57.662724      	57.648464      	57.732445      	57.29946       	57.396164      	57.334602      	57.234814      	57.326397      	57.345043      	57.374557      	57.144337      	57.105824      	56.968487      	57.312763      	57.833572      	57.839752      	57.801247      	59.64855       	59.455383      	59.69337       	61.990788      	62.087906      	61.24695       	61.261074      	61.121765      	63.833454      	64.34952       	64.3933        	64.27683       	63.938923      	64.03509       	64.27737       	63.933643      	64.001274      	64.11265       	63.93967       	64.07425       	63.9593        	63.959972      	64.31934       	64.10949       	64.44581       	64.34974       	64.21749       	64.11821       	64.161         	63.528545      	63.588764      	63.873516      	63.839493      	63.607933      	63.94712       	63.597595      	63.804962      	63.673656      	63.853878      	63.988213      	64.011086      	63.97028       	63.85353       	63.96813       	64.219696      	64.12579       	64.112274      	63.894367      	64.26486       	64.28644       	64.204124      	64.0263        	64.16346       	64.18002       	64.20734       	64.24301       	
64.17434       	64.27565       	64.463104      	64.43676       	64.22425       	64.30458       	64.3262        	64.272         	64.28407       	65.82207       	57.898956      	56.315437      	56.381367      	56.588184      	56.63005       	56.802376      	56.30836       	56.696194      	57.081886      	56.99177       	57.326317      	57.59485       	57.81808       	57.89993       	58.0133        	58.06082       	57.83209       	57.85866       	57.44571       	57.610867      	57.504375      	57.499866      	57.374634      	57.362255      	57.44653       	57.36638       	57.506813      	57.55113       	58.099335      	60.11155       	57.96238       	59.11737       	60.77538       	61.741344      	62.30519       	62.31225       	61.16549       	63.174267      	64.417816      	63.878647      	64.28784       	64.66821       	64.55372       	64.636154      	64.268555      	64.54548       	64.109406      	64.17114       	64.39198       	64.16204       	64.49567       	64.176384      	64.1927        	64.35583       	64.439255      	64.04402       	64.174835      	63.990532      	64.458435      	64.199356      	64.13645       	64.25282       	64.369095      	64.09142       	63.806095      	64.093925      	64.29816       	63.751923      	64.04498       	64.266365      	64.0962        	64.20377       	64.196144      	63.96077       	64.434654      	64.2429        	63.766106      	64.57011       	64.23042       	64.2839        	64.64064       	64.48672       	64.710205      	64.50648       	64.4572        	64.51848       	64.515816      	64.32857       	64.44503       	64.41856       	
64.44464       	64.95252       	64.618126      	64.69157       	64.68807       	64.53464       	64.37612       	64.651         	64.528755      	66.7931        	60.39419       	56.7192        	56.774353      	56.70929       	56.668385      	56.606293      	56.808113      	57.057205      	57.20758       	57.278324      	57.555565      	57.612247      	57.95196       	58.06854       	57.884453      	58.120308      	57.607594      	57.69544       	57.6061        	57.50341       	57.276993      	57.77816       	57.505642      	58.19098       	58.929363      	60.505604      	60.895596      	58.923714      	60.734726      	61.70102       	61.433308      	61.9854        	63.87861       	64.27904       	64.52258       	64.65494       	65.014244      	64.82268       	65.32457       	64.89363       	65.18013       	64.86733       	64.93937       	64.86852       	64.893005      	64.8526        	64.7585        	64.597496      	64.84864       	64.8212        	64.8167        	64.71671       	64.59665       	64.84834       	64.568405      	64.66944       	64.61787       	64.89688       	64.96141       	64.928665      	64.728         	65.0405        	65.30871       	64.805176      	64.68244       	64.69493       	64.39085       	64.50906       	64.37359       	64.45267       	64.38437       	64.030785      	64.37595       	64.62689       	64.69858       	64.717804      	64.58705       	64.68389       	64.79849       	64.84847       	64.6399        	64.79754       	64.804         	64.99236       	64.980194      	64.69122       	64.8048        	65.13673       	65.292496      	65.04074       	
64.86378       	65.128555      	64.81009       	64.923904      	64.59317       	64.77086       	64.52582       	64.482765      	64.440605      	66.10807       	63.24088       	57.21435       	56.552452      	56.64416       	56.750328      	56.93788       	56.88153       	56.986134      	57.050037      	57.448814      	57.394627      	57.526646      	57.606884      	57.709183      	57.606663      	57.921         	57.807507      	58.160805      	58.404114      	57.890667      	59.400173      	58.96667       	59.5256        	60.745205      	59.608036      	61.034145      	60.64472       	61.343777      	64.02717       	64.71152       	64.53706       	64.66584       	64.416145      	64.682076      	64.63114       	65.1031        	64.8235        	64.81722       	65.031494      	64.88684       	64.879395      	65.03249       	64.919754      	64.85942       	64.826744      	64.81076       	64.93218       	64.80149       	64.896645      	65.07585       	64.912796      	64.76791       	64.641174      	64.91543       	64.863365      	64.83636       	64.660095      	64.977196      	64.71376       	64.60777       	64.96508       	64.84652       	64.88434       	64.96351       	64.30636       	64.26867       	64.466675      	64.60592       	64.56586       	64.19255       	64.488625      	64.627945      	64.65872       	64.70711       	64.77898       	64.56683       	63.960045      	64.75169       	64.430145      	64.88624       	64.784996      	64.63556       	64.78091       	64.92163       	64.58374       	64.8665        	64.81057       	64.84392       	64.99713       	64.799805      	
64.83878       	64.68272       	64.552155      	64.886345      	64.77415       	64.9564        	64.90749       	64.74303       	64.45727       	65.4785        	63.20095       	57.218925      	56.494896      	56.630093      	56.762295      	56.56912       	56.92524       	56.854176      	57.067303      	57.077267      	57.19028       	57.43208       	57.40842       	57.614826      	57.815983      	58.997215      	58.8772        	59.439507      	58.79625       	60.5657        	61.274117      	62.37092       	61.809772      	61.481503      	63.088875      	64.02784       	64.67436       	64.44718       	64.3819        	64.490974      	64.09776       	64.0331        	64.5346        	64.2484        	64.52828       	65.12392       	65.08538       	64.55576       	64.92998       	64.68125       	64.95048       	64.72502       	64.90463       	64.84125       	64.55944       	64.79799       	64.87457       	64.657616      	64.639084      	64.63216       	64.652306      	64.74676       	64.4651        	64.78026       	64.6625        	64.525154      	64.62367       	64.58354       	64.89588       	64.57695       	64.69428       	64.8152        	64.57415       	64.54211       	64.39775       	64.37836       	64.44504       	64.54763       	64.56922       	64.491875      	64.37789       	64.07574       	64.46908       	64.29265       	64.67985       	64.42047       	64.44269       	64.61284       	64.73809       	64.51076       	64.693634      	64.792206      	64.766495      	64.77745       	65.26356       	64.85151       	64.78657       	64.836754      	65.04013       	64.84815       	
64.816414      	65.12826       	65.02659       	65.08384       	64.82717       	65.235374      	65.36534       	65.08019       	65.35969       	65.71304       	67.03288       	63.83319       	62.439293      	62.888706      	62.8933        	63.038166      	62.708927      	62.87151       	63.333374      	63.523087      	60.976254      	60.03078       	59.369793      	58.897766      	59.36417       	59.703285      	60.00877       	61.048313      	60.34891       	60.485336      	63.924637      	64.447685      	64.45302       	64.42107       	64.18349       	64.07588       	64.00227       	64.42518       	64.62123       	64.27023       	64.32498       	64.20579       	64.32082       	64.28082       	64.2235        	64.36732       	64.22578       	64.00977       	64.29885       	64.44725       	64.367744      	64.831184      	64.37444       	64.43926       	64.21519       	64.17956       	64.111         	64.72956       	64.62712       	64.620544      	64.37925       	64.73143       	64.60603       	64.822914      	64.36697       	64.30262       	64.64537       	64.679016      	64.30031       	64.539345      	64.57763       	64.2257        	64.75865       	64.708565      	64.41733       	64.5351        	64.76907       	64.51074       	64.72072       	64.74978       	64.557304      	64.48355       	64.474266      	64.50351       	64.58719       	64.46921       	64.42227       	64.70881       	64.40608       	64.43341       	64.48605       	64.413734      	64.48841       	64.589806      	64.87495       	64.70438       	64.304535      	64.52142       	64.54849       	64.63158       	
64.91111       	64.80244       	64.58057       	64.74834       	64.53779       	64.48964       	64.55764       	64.77997       	64.520546      	65.29334       	65.36176       	66.34804       	63.29542       	63.05286       	63.38466       	63.595303      	64.72245       	64.946724      	65.879616      	64.663895      	62.223484      	61.018818      	61.06826       	62.554367      	61.274597      	61.136784      	61.232758      	62.477097      	64.45159       	64.0629        	64.39528       	64.28153       	64.20605       	63.73038       	64.45064       	63.813915      	63.10562       	64.28294       	64.344345      	64.21619       	63.966644      	64.20028       	64.04972       	64.16483       	64.20825       	64.33877       	64.05405       	64.05305       	63.773552      	64.29616       	64.18399       	64.28039       	63.857555      	63.90953       	63.877975      	63.870045      	64.21867       	64.635796      	64.4642        	64.4124        	64.123024      	64.4922        	64.42505       	64.49078       	64.194565      	64.42047       	64.314255      	64.6173        	64.4421        	64.37581       	64.44924       	64.85576       	64.59586       	64.299545      	64.42986       	64.23702       	64.63253       	64.21977       	64.80762       	64.20147       	64.271416      	64.1562        	64.39492       	64.444084      	64.67658       	64.720505      	64.261         	64.75953       	64.42192       	64.05398       	64.51207       	64.43025       	64.338005      	64.32535       	64.68055       	64.517235      	64.00563       	64.33907       	64.41948       	64.659775      	
63.978954      	64.4398        	64.387726      	64.14893       	64.16273       	64.16247       	64.30551       	64.492226      	64.204765      	64.26024       	64.29304       	64.107605      	64.244896      	64.51575       	64.292816      	64.180244      	64.50082       	64.36259       	64.32866       	64.22225       	64.560104      	64.41923       	64.239044      	64.19423       	64.145325      	64.1025        	64.073425      	64.40185       	64.32252       	64.27673       	64.141136      	64.25759       	64.04898       	64.24171       	64.06341       	64.19362       	64.08827       	63.995308      	64.04574       	63.878006      	64.29443       	64.032684      	64.05003       	64.45802       	64.1808        	64.45119       	63.95896       	64.52437       	64.149         	64.18929       	64.06812       	64.22076       	64.13493       	64.30472       	64.177864      	63.856667      	64.057         	64.27891       	64.580605      	64.33358       	64.34          	64.38638       	64.39013       	64.53847       	64.023926      	64.573975      	64.02489       	64.41973       	64.249306      	64.525246      	64.43541       	64.55136       	64.4042        	64.748375      	64.64851       	64.56326       	64.677765      	64.51337       	64.352196      	64.25267       	64.47055       	64.2965        	64.50436       	64.419716      	64.52287       	64.46173       	64.24378       	64.484         	64.24665       	64.177246      	64.41027       	64.63912       	64.08561       	64.40029       	64.54682       	64.60449       	64.80621       	64.257286      	64.10541       	64.21179       	
63.929295      	64.74444       	64.177704      	64.30396       	64.458244      	64.47248       	64.77324       	64.12603       	64.21861       	63.966087      	64.564606      	64.16483       	64.00207       	64.5266        	64.29019       	64.22812       	64.54858       	64.41178       	64.4779        	64.32476       	64.57652       	64.4776        	64.26437       	64.39885       	64.36708       	63.762302      	64.44008       	64.44234       	64.425064      	64.2525        	64.156075      	64.30023       	64.34037       	64.2877        	64.17919       	64.125565      	64.03055       	64.35361       	64.11193       	64.06836       	64.12934       	64.14293       	64.2699        	64.17827       	64.07987       	64.39861       	64.28539       	64.44376       	64.23509       	64.22741       	64.45966       	64.07672       	63.861217      	64.32536       	63.754307      	64.190506      	64.18329       	64.24146       	64.29681       	64.28517       	64.353806      	64.50002       	64.45427       	64.133446      	64.49033       	64.54228       	64.06604       	64.46835       	64.22481       	64.60514       	64.59705       	64.44107       	63.96319       	64.414604      	64.54609       	64.33241       	64.53518       	64.12489       	64.13234       	64.69194       	64.495255      	64.29417       	64.61847       	64.29672       	64.73732       	64.61841       	64.295746      	64.40017       	64.43809       	64.36426       	64.21232       	64.59548       	64.611496      	64.4909        	64.12559       	64.651024      	64.22907       	63.774807      	63.96844       	64.402596      	
64.10727       	64.11241       	64.05425       	64.010185      	64.41984       	64.22672       	64.02796       	64.42295       	64.45281       	64.206184      	64.287224      	64.09952       	64.26995       	64.467445      	64.20032       	64.24862       	64.17073       	64.558205      	64.42399       	64.066895      	64.00493       	64.14138       	64.261284      	64.329865      	64.307686      	63.97362       	64.0644        	64.224724      	64.05848       	64.16679       	64.16848       	63.93682       	64.02776       	64.16664       	64.117935      	63.9395        	64.2329        	64.18319       	63.798832      	63.734562      	64.24079       	64.51215       	64.30532       	64.0636        	64.24126       	64.07306       	64.00045       	63.97395       	63.931892      	63.6761        	64.09464       	63.96547       	64.2432        	63.779266      	64.03231       	63.931217      	64.28046       	63.932747      	64.29863       	64.1646        	64.29434       	64.32802       	64.18983       	64.33082       	64.21157       	64.3242        	64.15734       	64.403786      	64.60216       	64.35983       	64.03131       	64.1221        	64.092804      	64.29295       	64.50571       	64.173515      	64.48244       	64.5358        	64.29723       	64.40497       	64.36607       	64.24498       	64.50513       	64.366875      	64.46914       	64.47086       	64.42919       	64.559235      	64.20085       	64.261604      	64.225914      	64.30613       	64.38096       	64.36927       	64.207146      	64.40254       	64.186516      	63.82754       	63.83342       	64.080696      	
63.654423      	63.967636      	64.237015      	63.984844      	64.269424      	64.48109       	64.27357       	64.25795       	64.11539       	64.16491       	64.247635      	63.882027      	64.10434       	64.277435      	64.23404       	63.94559       	64.34293       	64.201706      	64.418755      	64.12086       	64.21676       	64.17787       	64.018265      	64.284546      	63.97555       	63.868267      	63.704903      	63.743614      	63.599133      	63.694733      	63.795784      	63.48853       	63.72256       	63.91282       	63.715034      	63.823208      	63.978786      	63.971413      	63.834137      	63.72405       	63.817696      	63.89151       	63.85843       	63.948864      	64.06959       	64.179634      	63.970737      	63.910625      	63.857456      	63.910706      	64.478065      	63.88839       	63.985798      	64.07251       	63.92919       	63.87695       	63.770054      	63.924816      	64.17726       	63.920364      	64.10473       	63.923073      	63.988514      	63.818565      	63.48374       	64.21055       	64.038666      	63.847397      	64.10582       	64.084885      	64.201126      	64.345146      	63.925434      	64.32197       	63.964325      	64.22975       	64.548996      	63.936703      	64.51085       	64.161125      	64.42662       	64.551544      	64.04044       	64.408554      	64.06739       	64.28609       	64.07254       	64.20008       	64.3023        	64.1539        	64.37336       	63.713795      	64.13122       	63.979588      	64.20654       	64.59616       	64.14153       	65.12603       	65.83532       	65.0038        	
64.27641       	64.21456       	64.02801       	63.888573      	63.730335      	64.1741        	64.21774       	64.06771       	63.89859       	63.92552       	64.18798       	63.931664      	64.23158       	63.596306      	64.13806       	64.24409       	64.24403       	64.28347       	64.245125      	64.05068       	64.3275        	64.421684      	63.83622       	64.035904      	64.02489       	64.067375      	64.05867       	63.89288       	63.861713      	63.657394      	63.876656      	63.68487       	63.73295       	64.051476      	64.01289       	64.008224      	64.21555       	64.054924      	63.916855      	64.098854      	64.21917       	63.989193      	64.12455       	63.963596      	64.02241       	64.18157       	64.21601       	64.09234       	63.97776       	63.944057      	63.727905      	64.02704       	64.058395      	64.06127       	63.809258      	63.8548        	64.021225      	63.652218      	64.10186       	64.24011       	64.47143       	64.16898       	64.24964       	64.06605       	64.36886       	64.03587       	64.04571       	64.21958       	64.43333       	64.28948       	63.90043       	64.471596      	64.19035       	64.362076      	64.448326      	64.37165       	63.90119       	64.43293       	64.204185      	64.4952        	64.40584       	64.22233       	64.4397        	64.50119       	64.613144      	64.0557        	64.65154       	64.61919       	64.200745      	64.11297       	64.07306       	63.675457      	64.60538       	64.23898       	64.27943       	64.24508       	64.377365      	64.12759       	64.07815       	64.094734      	
64.2302        	64.402115      	64.35866       	64.09276       	64.11326       	64.54421       	64.48798       	64.4436        	63.95497       	64.14632       	64.14061       	64.207245      	64.0355        	64.040764      	64.234665      	64.01114       	63.955067      	64.11376       	64.46774       	63.983315      	64.31786       	64.09704       	64.04567       	64.264595      	63.753326      	64.068504      	63.895634      	64.06903       	64.11598       	63.792107      	63.94465       	64.03972       	64.062454      	64.246895      	63.90167       	64.12335       	64.16642       	64.01095       	63.90739       	64.00573       	63.956493      	64.23915       	64.04354       	64.041214      	64.14706       	64.18107       	64.09343       	64.15882       	63.963943      	64.2441        	64.35799       	64.19983       	63.89959       	64.39282       	63.972664      	63.99746       	64.32204       	64.02167       	63.844257      	64.31601       	64.22892       	64.31114       	64.08051       	63.929028      	64.20093       	64.20451       	64.18416       	64.26267       	63.88283       	64.39457       	64.348305      	64.2184        	64.39152       	64.18431       	64.28615       	64.21886       	64.10524       	64.17912       	64.22355       	64.12587       	63.870087      	64.08632       	63.735683      	64.06898       	64.127045      	63.9882        	64.21868       	63.685722      	63.931522      	63.952244      	64.06707       	63.879604      	64.21277       	64.13157       	64.08651       	64.3976        	64.37583       	64.11695       	64.19442       	64.161705      	
64.086655      	63.991695      	64.18125       	64.01821       	63.628452      	64.25147       	63.985153      	63.63174       	64.19213       	64.13939       	64.22118       	64.11726       	64.03268       	64.395004      	64.04172       	64.01617       	64.21639       	64.41811       	64.426674      	64.27763       	64.28001       	64.24263       	64.3587        	64.324745      	64.08559       	63.90377       	64.354836      	64.34175       	64.1041        	64.07238       	64.19717       	63.898853      	64.01205       	64.22756       	64.31036       	64.049385      	64.21463       	64.18984       	64.202705      	64.16149       	64.12778       	64.11394       	63.78098       	64.000084      	64.06087       	63.836273      	64.039185      	63.837326      	64.09423       	63.742153      	63.82903       	63.977074      	63.709103      	63.77043       	63.822376      	63.66687       	63.616016      	63.963734      	63.733303      	64.147026      	64.065895      	64.042175      	64.08753       	64.06775       	63.9965        	64.12068       	64.05176       	63.927635      	64.096436      	63.86103       	64.0781        	64.07854       	64.02464       	64.17274       	63.846256      	63.775158      	63.660595      	63.834213      	64.03502       	63.84094       	63.84872       	63.987583      	63.95921       	63.86747       	63.773308      	64.2995        	64.00978       	63.743114      	63.83725       	63.888206      	63.83344       	63.597023      	63.57894       	63.27061       	63.82416       	63.396576      	63.537617      	63.33875       	63.772976      	64.00473       	
63.79897       	63.6176        	63.738647      	63.662933      	63.62633       	63.65486       	63.62891       	63.63297       	63.623047      	63.663         	63.688675      	63.772697      	63.628822      	63.55148       	63.394283      	63.644176      	63.875973      	63.88583       	63.71114       	63.561768      	64.02467       	63.91062       	63.605244      	63.919525      	63.57134       	63.770195      	63.538357      	63.968544      	63.704754      	63.63738       	63.639095      	63.42114       	63.723625      	63.5184        	63.557163      	63.58092       	63.30417       	63.833813      	63.62881       	63.663277      	63.444443      	63.71547       	63.637756      	63.73342       	63.98583       	63.72667       	64.00281       	63.928852      	63.864735      	63.918514      	64.212         	63.95506       	63.868732      	64.239586      	64.0028        	63.883297      	63.724888      	63.72867       	64.14648       	63.962036      	64.31111       	63.70882       	63.64373       	64.11513       	64.14738       	64.13697       	64.1941        	64.046104      	63.804523      	64.17265       	64.27598       	64.17246       	64.25138       	64.32386       	64.39034       	64.36042       	64.30124       	64.41893       	64.38809       	64.173225      	63.994755      	64.467415      	64.3793        	63.887608      	64.37036       	64.18523       	64.62791       	64.37573       	63.81427       	64.270256      	64.30541       	64.068306      	64.147736      	63.957653      	64.17671       	63.948364      	64.72754       	66.85939       	65.36379       	61.659016      	
64.14569       	63.878357      	64.319695      	64.01195       	64.11068       	64.0354        	64.21294       	64.09108       	64.257744      	63.95499       	63.86215       	64.030945      	63.847816      	63.976887      	64.21804       	63.725403      	64.10909       	64.04551       	64.02402       	63.98745       	63.80061       	63.967613      	64.01824       	64.02839       	64.138916      	63.831127      	63.803257      	63.750725      	63.886868      	64.15802       	64.18988       	63.99398       	64.001724      	63.635914      	63.959675      	64.01576       	63.811474      	64.15603       	64.224686      	64.0662        	63.873398      	64.07865       	64.08668       	64.15945       	64.30373       	64.058716      	64.02833       	64.001854      	64.19772       	64.34058       	64.52808       	64.1151        	63.820133      	64.09433       	64.17451       	64.249245      	64.02352       	63.865665      	63.822838      	64.08367       	64.2462        	64.26922       	64.40145       	64.0779        	64.00102       	64.37154       	64.43617       	64.08845       	64.34401       	64.43221       	64.43197       	64.02545       	64.20565       	64.201744      	64.12366       	64.29601       	64.1877        	64.48439       	64.342094      	64.31535       	64.081955      	64.23407       	64.26397       	64.439575      	64.601746      	64.36853       	64.63817       	64.5436        	64.46191       	64.484985      	64.17329       	64.45209       	65.64873       	64.75732       	62.974586      	62.025925      	60.386215      	58.78227       	58.346382      	58.152977      	
63.883118      	63.62227       	63.59591       	63.999226      	63.84034       	64.075554      	63.95498       	64.06655       	63.863373      	63.911175      	64.2166        	64.09643       	64.26101       	63.994743      	64.02487       	64.191864      	64.01652       	64.1898        	63.915043      	64.11478       	63.939026      	64.12052       	63.629818      	63.85975       	64.00502       	64.10332       	63.667538      	63.816948      	63.98961       	63.876102      	63.890694      	63.971718      	63.899498      	63.786423      	63.863552      	64.257744      	63.84481       	64.09591       	64.004974      	64.14588       	63.842514      	64.17098       	63.7645        	63.638184      	64.33132       	64.022736      	64.1136        	63.971283      	63.78321       	64.0173        	64.05324       	64.06037       	64.26764       	64.06016       	63.90758       	63.853886      	63.941933      	63.78958       	63.76177       	63.775925      	64.09891       	64.3159        	64.10766       	64.29565       	63.9723        	63.9586        	64.06868       	64.09707       	64.32759       	64.03954       	63.898113      	64.21716       	64.0736        	64.24347       	64.06255       	63.966087      	63.747738      	64.119514      	63.91301       	64.20477       	64.19462       	64.07996       	64.230156      	63.999947      	64.446976      	64.38281       	64.24382       	64.73882       	65.43966       	63.583294      	63.14126       	60.47931       	58.632282      	57.918255      	57.78044       	57.481308      	57.15333       	57.041107      	57.18798       	57.046776      	
64.22676       	63.95739       	63.932674      	63.91993       	63.72391       	63.97055       	63.71276       	63.884583      	63.65147       	63.87175       	63.90734       	63.90081       	64.1747        	63.98031       	63.768726      	64.07563       	63.82383       	64.062195      	64.00578       	64.095345      	64.00526       	64.320724      	63.97758       	64.11088       	64.24273       	63.899654      	63.580463      	64.02835       	63.99965       	63.714314      	63.893475      	64.15152       	64.146225      	63.659134      	63.828667      	63.92067       	63.88175       	63.93051       	63.952972      	64.01874       	64.099915      	63.904434      	63.901127      	64.06621       	63.920902      	64.03081       	64.09034       	63.840416      	64.122574      	64.032135      	63.803715      	64.02765       	64.2525        	64.1702        	64.08083       	64.13575       	64.2435        	63.954212      	63.454365      	64.32952       	64.129234      	64.058716      	64.15328       	64.39257       	64.08842       	64.25083       	64.456726      	64.1677        	64.34797       	63.799545      	64.10966       	64.4623        	64.02738       	64.33676       	64.04755       	64.24648       	64.347244      	64.42284       	64.473305      	64.41358       	64.39256       	64.82637       	64.28984       	64.497185      	64.669         	64.568665      	65.88867       	61.864853      	59.013546      	58.05278       	57.23576       	57.30879       	57.116863      	56.954643      	56.58079       	56.604126      	57.123745      	57.22879       	57.183453      	57.332813      	
64.127304      	64.09657       	64.10512       	64.46187       	64.256744      	64.540184      	64.19545       	64.11381       	64.15918       	63.98622       	63.98146       	64.2315        	64.0118        	64.33067       	63.935562      	64.06326       	64.44897       	63.98794       	64.28917       	64.54133       	64.12715       	64.09011       	64.107704      	64.02173       	64.0564        	64.04892       	63.984043      	63.783524      	64.06262       	64.03977       	64.286095      	64.25211       	64.11474       	64.058815      	64.030716      	64.036026      	64.11418       	64.06256       	64.19193       	63.882706      	63.820927      	64.15457       	64.083496      	64.31512       	64.24889       	64.104576      	64.138855      	64.103745      	64.07465       	64.247025      	64.15739       	64.21599       	64.28952       	64.20114       	64.33677       	64.03817       	63.87033       	64.0445        	63.860306      	63.989273      	64.07443       	64.332275      	63.83483       	63.919613      	64.10403       	63.92174       	64.22285       	64.13035       	64.04361       	63.8083        	64.00269       	63.75924       	64.15697       	64.08658       	63.8189        	63.863197      	63.90341       	63.673912      	63.99285       	63.5962        	63.34071       	64.15036       	63.423107      	63.441147      	62.67323       	64.97922       	61.74661       	58.769638      	57.864872      	56.791725      	56.324226      	57.15954       	56.799374      	57.06959       	57.00696       	56.92712       	57.09606       	57.171265      	57.49257       	57.41779       	
63.759953      	64.093025      	63.93996       	63.77229       	64.12032       	64.066505      	64.156876      	64.11586       	64.180016      	63.930206      	64.08682       	63.778286      	63.976406      	64.00568       	63.911667      	63.774788      	63.994267      	64.07896       	64.18727       	63.910675      	63.94761       	64.0987        	64.02034       	64.20543       	64.072174      	63.85667       	63.71682       	63.10014       	63.93967       	63.992413      	63.889217      	64.17014       	64.26942       	63.77383       	64.09082       	64.08803       	64.18141       	64.26657       	64.17361       	64.08753       	64.10812       	64.19328       	64.02663       	64.18048       	64.27851       	64.20329       	63.93718       	64.23598       	64.22898       	64.07764       	64.28369       	64.06466       	64.39626       	64.11832       	63.62365       	64.009544      	63.76493       	64.07902       	64.11001       	63.74126       	63.935963      	63.836132      	64.14237       	64.19448       	64.390114      	64.07284       	64.14986       	64.38264       	63.98234       	64.103035      	64.10164       	64.157196      	64.18933       	64.020645      	64.16095       	64.35702       	64.20629       	64.354355      	64.273384      	64.4077        	64.521484      	64.64187       	64.49717       	64.49227       	65.70348       	63.836243      	59.584984      	58.29573       	57.90314       	57.017765      	56.638676      	56.84442       	57.315125      	57.27784       	56.97891       	57.436977      	57.142952      	57.05141       	57.326588      	57.278748      	
63.266304      	63.599922      	63.34147       	63.304234      	63.806194      	63.66755       	63.328766      	64.110565      	63.34196       	63.190563      	63.5427        	63.591972      	63.464043      	63.52151       	63.43682       	63.443195      	63.587803      	63.24753       	63.10283       	63.43142       	63.542305      	63.43748       	63.406326      	63.369503      	63.441555      	63.409416      	63.340675      	63.212883      	63.311005      	63.47162       	63.42886       	63.425         	63.559383      	63.492645      	63.973484      	63.085293      	63.41266       	63.348846      	63.73604       	63.230022      	63.239346      	63.601074      	63.39781       	63.380447      	63.550117      	63.373024      	63.396732      	63.334255      	63.201385      	63.475296      	63.295864      	63.49561       	63.269062      	63.48361       	63.578396      	63.306408      	63.166714      	63.174583      	63.51694       	63.332672      	63.387905      	63.59949       	63.66129       	63.34993       	63.368088      	63.44186       	63.393665      	63.347725      	63.4508        	63.216953      	63.977707      	64.0469        	63.847862      	63.83832       	64.09406       	64.0081        	63.86659       	64.17367       	63.976627      	63.729546      	64.1081        	64.32007       	64.592514      	64.3085        	65.38509       	62.76173       	59.487854      	57.948723      	57.904594      	56.90035       	56.552097      	56.7593        	56.826363      	57.040382      	56.982113      	57.509884      	57.309177      	56.860966      	56.961464      	57.250816      	
63.48373       	63.708733      	63.693172      	63.78837       	63.73121       	63.988228      	63.626106      	63.831635      	63.885067      	63.964027      	64.11441       	64.01455       	64.20804       	64.06676       	63.794746      	64.03579       	63.86916       	63.990227      	64.05655       	63.869343      	63.939606      	63.92163       	64.16233       	64.145226      	64.113556      	64.09909       	64.162415      	64.24495       	63.969486      	64.43391       	64.5621        	64.57777       	66.055405      	65.21782       	64.46353       	62.620262      	62.967346      	63.529835      	63.8042        	63.45959       	63.652527      	63.554527      	63.323685      	63.59492       	63.123055      	63.441387      	63.42107       	63.53496       	63.43681       	63.431896      	63.686077      	63.286297      	63.641888      	63.718685      	63.391865      	63.520332      	63.596096      	63.72853       	63.41723       	63.43918       	63.148144      	63.45043       	63.834858      	63.69843       	63.604946      	63.763058      	63.724697      	63.57762       	63.732372      	63.704586      	63.85481       	63.610317      	63.809364      	63.862087      	63.45321       	63.7259        	63.77873       	63.688118      	63.8751        	63.72163       	63.74892       	63.877357      	64.03319       	63.96353       	64.6568        	63.548096      	59.898293      	57.966816      	58.194683      	57.46975       	56.54391       	56.795586      	57.07431       	57.173077      	57.03763       	56.849785      	57.18328       	57.169704      	56.845955      	57.117718      	
63.56046       	63.59274       	63.38606       	63.67889       	63.587303      	63.620296      	63.661503      	63.42382       	63.60352       	63.671295      	63.4834        	63.454815      	63.336582      	63.594574      	63.34834       	63.656002      	63.560562      	63.280285      	63.490276      	63.475616      	63.41981       	63.641006      	63.34734       	63.595627      	63.6001        	63.72847       	63.888157      	63.484894      	63.405212      	63.642498      	63.270763      	63.32706       	63.51649       	63.454876      	63.33516       	63.75517       	63.373707      	63.507156      	63.546093      	63.587086      	63.398777      	63.34311       	63.337097      	63.4503        	63.442596      	63.604923      	63.79675       	63.419582      	63.65345       	63.203712      	63.34119       	63.522694      	63.512455      	63.409603      	63.291298      	63.340405      	63.129486      	63.409386      	63.315117      	63.179615      	63.51802       	63.550224      	63.66042       	63.44507       	63.233635      	63.371353      	63.585197      	63.55723       	63.489212      	63.520058      	63.69294       	63.43853       	63.41958       	63.72188       	63.918583      	63.421314      	63.788292      	64.00547       	64.00465       	63.698723      	64.17527       	63.7939        	63.862614      	63.743675      	64.91358       	64.19028       	61.072346      	58.72462       	58.364082      	58.359013      	57.412933      	57.15643       	57.288696      	57.683357      	57.725502      	57.51961       	57.496548      	57.05652       	56.71974       	57.379456      	
63.010235      	63.032173      	62.985344      	63.029938      	62.850822      	63.040127      	63.001083      	63.336647      	63.17196       	63.014633      	63.28864       	63.504593      	62.846214      	63.058887      	63.028122      	63.308582      	62.95854       	63.054756      	63.24592       	63.383312      	63.55654       	63.295387      	63.377678      	63.05847       	63.22229       	63.250294      	63.40134       	63.51892       	63.052753      	62.923607      	63.13396       	62.955326      	63.123295      	63.11409       	63.30682       	63.425556      	63.218143      	63.181725      	63.180767      	63.27848       	62.936558      	63.311092      	62.881313      	63.01347       	62.872944      	63.095684      	63.28576       	62.91732       	63.104794      	62.762527      	63.015953      	63.02009       	63.53029       	63.157074      	63.29211       	62.83144       	63.12223       	62.913357      	62.703106      	62.748627      	62.7239        	63.282467      	63.701977      	63.279926      	63.354126      	63.432247      	63.271984      	63.416714      	63.33281       	63.2288        	63.044643      	63.443962      	63.825638      	63.78755       	63.770306      	63.631115      	64.01122       	64.1819        	63.682396      	63.656803      	64.20163       	63.9971        	63.944572      	64.09298       	63.670086      	65.87206       	62.73414       	59.578312      	58.411316      	57.93361       	57.118668      	56.686493      	57.070183      	57.137596      	57.536278      	57.274986      	57.47067       	57.542084      	57.84625       	58.05015       	
64.16118       	63.83317       	63.963264      	64.00394       	64.07415       	64.24811       	64.202095      	64.16932       	64.12392       	64.35578       	64.13568       	64.21582       	64.09054       	64.128265      	63.91986       	64.091576      	64.10336       	64.19428       	64.09642       	64.10517       	64.18239       	64.09522       	64.120255      	64.23437       	64.10011       	64.381485      	64.212265      	64.410965      	64.21255       	63.91311       	64.04078       	64.16599       	64.191956      	64.2272        	64.272644      	63.907898      	64.14719       	64.187584      	64.28209       	64.229996      	64.00745       	64.28996       	63.8953        	64.289085      	64.35587       	64.292816      	64.34834       	64.17348       	64.34725       	64.14584       	64.41572       	64.13548       	64.55395       	64.55326       	65.36857       	64.75793       	63.679714      	61.343815      	58.64085       	58.049183      	58.844154      	59.784035      	60.308792      	63.782837      	63.550842      	63.981815      	63.786083      	64.14056       	64.01613       	63.90879       	63.955147      	63.84531       	64.10396       	64.155174      	64.34634       	64.162506      	63.79168       	64.038795      	64.039734      	64.21361       	64.32805       	64.556335      	64.52615       	64.611824      	64.63759       	66.42257       	63.063587      	59.852234      	58.416275      	58.023422      	57.624336      	56.983765      	57.570705      	57.763767      	57.842285      	57.05228       	57.34931       	57.7726        	57.687008      	57.8709        	
63.48356       	63.628464      	64.014465      	63.601913      	63.52822       	63.53201       	63.598568      	63.666435      	63.7804        	63.385902      	63.61409       	63.75164       	63.435566      	63.565697      	63.455635      	63.4644        	63.458694      	63.514347      	63.517994      	63.784004      	63.644634      	63.73069       	63.396713      	63.702057      	63.63418       	63.572727      	63.57363       	63.551746      	63.73704       	63.31981       	63.560055      	63.174847      	63.521122      	63.496246      	63.766953      	63.487923      	63.358353      	63.511276      	63.43103       	63.65757       	63.285244      	63.551464      	63.152798      	63.542152      	63.64211       	63.588448      	63.530106      	63.655903      	63.58004       	63.330345      	63.833683      	63.83889       	64.84138       	62.434914      	59.663147      	57.886856      	57.51849       	57.566345      	56.68336       	55.919594      	56.09254       	55.92835       	55.94664       	61.694805      	64.134056      	64.04245       	64.06591       	63.955677      	64.10264       	64.183304      	64.106926      	64.17571       	64.08744       	64.34747       	64.529785      	64.237015      	64.18154       	64.152695      	64.41781       	64.23953       	64.35331       	64.25825       	64.4282        	64.16989       	64.58075       	65.70854       	63.395763      	60.089626      	59.16985       	58.397972      	57.406868      	56.813126      	57.162136      	57.090687      	57.180622      	57.053455      	57.368732      	57.343662      	57.51264       	57.75352       	
63.26694       	63.456615      	63.56849       	63.39942       	63.512424      	63.13554       	63.531002      	63.231796      	63.388077      	63.407673      	63.892017      	63.412262      	63.590714      	63.322327      	63.546635      	63.390804      	63.521027      	63.363068      	63.44824       	63.373337      	63.58871       	63.585743      	63.70675       	63.48925       	63.762608      	63.373466      	63.708515      	64.05339       	63.45007       	63.73333       	63.555775      	63.88985       	63.269356      	63.389717      	63.590252      	63.490524      	63.753548      	63.249157      	63.01976       	62.962685      	63.2235        	63.32223       	63.13694       	63.570854      	63.397804      	63.486004      	64.091736      	62.311203      	62.063095      	60.360508      	58.549244      	57.652004      	57.324646      	57.324173      	56.331593      	56.33481       	56.3894        	56.31824       	56.50947       	56.268154      	56.288506      	56.70416       	57.288338      	59.675533      	64.01326       	63.54646       	63.60695       	63.5845        	63.687565      	63.869026      	63.42052       	63.8722        	63.917072      	63.875015      	63.724945      	64.18831       	63.785606      	63.753056      	63.781223      	63.90144       	64.25052       	64.23696       	64.188705      	64.474335      	64.480446      	64.34263       	66.70555       	62.373405      	59.630234      	58.671177      	58.16749       	56.977905      	57.103085      	57.125168      	57.330147      	57.22994       	57.500862      	57.42696       	57.415565      	57.305626      	
63.5929        	63.833164      	63.7804        	63.492836      	63.618874      	63.843246      	63.704956      	63.93485       	63.930614      	63.78342       	63.568405      	63.922718      	64.14435       	63.68384       	63.679848      	63.854015      	64.16393       	63.782543      	63.64967       	63.60666       	63.890495      	64.075516      	64.150276      	63.302383      	64.08407       	63.65892       	63.952362      	64.17285       	63.15017       	63.796368      	63.727093      	63.847385      	63.513763      	63.956223      	63.78498       	63.37611       	63.49938       	63.903812      	63.601707      	63.64926       	63.431175      	64.29126       	64.490974      	60.821697      	61.455612      	59.401543      	58.40874       	57.538097      	57.453644      	56.629055      	56.730618      	56.438168      	56.44227       	56.82594       	56.435043      	56.737324      	57.068943      	56.947422      	56.95836       	56.50296       	56.71372       	55.815456      	57.688457      	59.12012       	62.509575      	63.802494      	63.66719       	63.73232       	63.874825      	63.748993      	63.81529       	64.13182       	64.079124      	63.830578      	64.07658       	64.00266       	63.810257      	64.024506      	63.937344      	64.06934       	64.26132       	64.366684      	64.36713       	64.483154      	64.73087       	64.630646      	66.26795       	61.82394       	59.136395      	58.435474      	58.206245      	57.18703       	57.375816      	57.233345      	57.24634       	57.507576      	57.61779       	57.51061       	57.59237       	57.373928      	
63.628605      	63.868687      	63.70123       	63.822384      	63.998955      	63.95421       	64.038414      	64.174576      	64.11371       	64.01197       	64.16383       	63.70508       	64.18323       	63.769817      	63.989483      	64.02813       	63.987305      	63.76565       	63.45829       	64.018425      	64.22671       	63.835247      	63.850655      	63.688824      	64.01157       	63.61733       	64.21042       	63.783966      	63.541363      	63.905556      	63.94763       	63.967392      	63.66779       	63.782032      	63.548817      	63.55498       	63.814743      	63.646904      	64.82156       	62.075645      	60.801937      	59.691383      	57.866066      	57.31404       	56.82755       	56.458485      	56.182446      	56.454304      	56.644207      	56.417084      	56.333084      	56.618763      	56.487385      	56.727123      	56.84804       	56.68706       	57.103462      	56.545788      	56.623714      	56.98437       	56.547432      	55.940346      	57.731407      	59.29335       	61.39082       	64.01123       	63.7888        	64.13044       	64.353134      	64.03295       	64.033676      	64.28208       	64.044586      	64.58939       	64.311966      	63.980614      	64.180954      	64.11044       	63.958015      	64.119095      	63.93491       	64.22023       	64.23247       	64.13679       	64.2548        	64.68888       	65.72574       	62.747116      	59.68762       	58.801914      	58.54379       	57.683372      	57.002716      	57.050552      	57.30852       	57.408943      	57.423325      	57.643566      	57.53659       	57.56841       	
62.86305       	63.547245      	63.643974      	63.454052      	63.37324       	63.345394      	63.5318        	63.23712       	64.04684       	63.30285       	63.29872       	62.983944      	63.269566      	63.461212      	63.225235      	63.35857       	63.315586      	63.26668       	62.9738        	63.590565      	63.435665      	63.59117       	63.537224      	63.602352      	63.576942      	63.631462      	63.72053       	63.37981       	63.922382      	63.512196      	63.479885      	63.514523      	63.638615      	63.607605      	65.352425      	61.001534      	58.49419       	58.46188       	57.799484      	56.667805      	56.455963      	56.259846      	56.315422      	56.178818      	56.085255      	56.877747      	56.26829       	56.373177      	56.531773      	56.67206       	56.644814      	56.663574      	56.95784       	57.003586      	56.693844      	56.528736      	56.620243      	56.82865       	56.854546      	56.82978       	56.44607       	56.38893       	56.09061       	58.478226      	62.32751       	63.812782      	63.468254      	63.55346       	63.422035      	63.801426      	63.67211       	63.8092        	63.6667        	63.8037        	64.01866       	63.80565       	64.13645       	64.10644       	63.9391        	63.877293      	63.998215      	64.272484      	63.83919       	64.19643       	63.98525       	64.53592       	65.31464       	64.59496       	61.006645      	58.613842      	58.279068      	57.808773      	57.120632      	56.987103      	57.43214       	57.52521       	57.056133      	58.016235      	58.388245      	57.420387      	
63.765697      	63.776237      	64.29231       	63.582783      	63.626858      	63.552532      	63.83045       	63.99215       	63.397957      	63.96746       	63.677147      	63.823776      	64.69265       	64.334854      	64.16199       	63.914383      	64.06709       	64.69152       	64.46403       	64.33649       	64.49584       	64.43114       	63.766533      	63.84332       	63.703926      	63.672436      	63.910873      	64.02379       	63.980083      	64.98119       	62.50618       	63.79197       	60.659966      	58.757584      	58.463295      	57.4793        	56.70502       	56.668896      	56.499714      	56.502983      	56.683475      	56.64541       	56.704086      	56.349873      	56.918438      	57.105377      	56.835873      	57.02757       	56.927425      	57.03922       	57.0307        	57.280327      	57.263557      	57.21052       	57.50211       	57.15564       	57.345757      	57.117424      	57.24475       	57.30993       	57.26924       	56.739487      	55.95764       	56.56613       	60.932484      	63.704956      	63.958748      	63.916706      	63.997856      	63.821136      	64.06411       	64.22782       	64.27354       	63.72695       	63.910946      	64.08028       	63.776436      	64.069084      	64.1063        	63.881992      	64.01716       	63.829468      	63.944622      	64.17268       	63.912083      	64.07112       	64.24739       	66.07207       	60.97414       	59.187653      	58.204998      	57.632915      	56.711727      	56.821743      	56.975445      	57.109234      	57.175053      	57.162212      	57.19044       	57.250694      	
63.84764       	63.78032       	63.57687       	64.058586      	63.26327       	63.963608      	63.52999       	64.06206       	63.600388      	63.802395      	63.92084       	63.52871       	63.925716      	63.6882        	64.05697       	63.849613      	63.577274      	63.495125      	63.62934       	63.716465      	63.886063      	63.721184      	63.691063      	63.876926      	63.687626      	63.82065       	64.7238        	64.58159       	61.209183      	58.12908       	57.252224      	57.546623      	56.891827      	56.53753       	56.328026      	56.6572        	56.570854      	56.98401       	56.593         	56.796368      	56.753426      	56.553852      	56.894077      	56.794155      	56.91825       	57.08078       	57.1337        	57.30013       	57.179085      	57.20398       	57.19306       	57.271008      	57.46605       	57.29287       	57.65382       	57.29731       	57.77081       	57.45163       	57.53976       	57.667007      	56.871445      	57.39623       	56.61047       	56.677532      	59.484642      	63.46917       	63.638077      	63.976856      	64.18995       	63.637657      	63.861256      	64.06523       	64.28111       	64.20562       	64.30365       	64.34797       	64.268074      	64.295975      	64.01095       	64.208534      	64.505905      	64.43893       	64.90681       	64.651764      	65.032684      	65.17556       	65.246704      	66.44981       	62.278507      	59.534023      	58.736355      	58.140076      	57.392857      	57.19131       	57.33015       	57.447025      	57.31582       	57.82781       	57.938408      	57.989628      	
63.57942       	63.287426      	63.844067      	63.462032      	63.650024      	63.50983       	63.477287      	63.415565      	63.710636      	63.788364      	63.548992      	63.88436       	64.01285       	64.00505       	63.646675      	63.73246       	64.04949       	64.27603       	63.353718      	63.82316       	63.9209        	63.54379       	63.860218      	64.02718       	63.824707      	65.36766       	63.309246      	60.362858      	57.588947      	55.962357      	56.022045      	56.52527       	56.386486      	56.573853      	56.64072       	56.49342       	56.49571       	56.819847      	56.631397      	56.707115      	56.831745      	56.86292       	56.69525       	56.960777      	56.898148      	57.18191       	56.756783      	56.97741       	56.85741       	56.951664      	57.019424      	56.91711       	57.141125      	57.033405      	57.1346        	57.122414      	56.993534      	57.353844      	57.046955      	57.19551       	56.84988       	56.74757       	56.43781       	57.12163       	58.124477      	61.953445      	63.517517      	63.69415       	63.482174      	63.5395        	63.74549       	63.59517       	63.61035       	63.494427      	63.929752      	63.83129       	63.62348       	63.54485       	63.640667      	63.99265       	63.68266       	63.90734       	64.22016       	64.15843       	64.23114       	64.303894      	64.27897       	66.104         	63.57578       	60.157707      	58.204433      	58.34678       	57.4104        	56.630554      	57.498734      	57.21925       	57.2603        	57.730362      	57.46698       	57.410976      	
63.90587       	63.693108      	64.025604      	63.744434      	63.763416      	63.716568      	63.64459       	64.014496      	64.00653       	64.02962       	63.607273      	63.781796      	63.90035       	63.861988      	63.842686      	63.76549       	63.881824      	63.638897      	64.35179       	63.967655      	64.09933       	64.05699       	63.827408      	63.7865        	65.08647       	63.93738       	60.289707      	58.104637      	56.634003      	56.35255       	56.702305      	56.51217       	56.7144        	56.75911       	56.764065      	56.900307      	56.89674       	57.05924       	56.95315       	57.106983      	57.00409       	57.050095      	57.144203      	57.321762      	57.071102      	56.965122      	57.050934      	57.396828      	57.082108      	57.020752      	57.16389       	57.06248       	57.128517      	57.212906      	56.98161       	57.296528      	57.183083      	57.12966       	56.835938      	57.138218      	56.70606       	56.922684      	56.337948      	56.044712      	57.423935      	60.937546      	63.144302      	63.68925       	63.359318      	63.224045      	63.57108       	63.392586      	63.621815      	63.44099       	63.753498      	63.968178      	63.733723      	63.815056      	63.569588      	64.10472       	63.522476      	63.784492      	63.65462       	63.44102       	63.96864       	63.69346       	63.53984       	64.367935      	64.06621       	61.456425      	58.814167      	57.84904       	57.35799       	56.57094       	56.95362       	57.044292      	57.102077      	57.28996       	57.616913      	57.75732       	
64.01715       	63.78907       	63.8838        	63.44719       	63.585327      	63.902752      	63.468872      	64.13985       	64.02487       	63.65754       	63.794415      	63.980114      	63.726         	64.07016       	63.354237      	63.853466      	63.840584      	63.76228       	63.867916      	63.727085      	63.84047       	64.26257       	64.08665       	63.77665       	66.571754      	61.534657      	59.041756      	57.587185      	57.047585      	56.406967      	56.40796       	56.929733      	56.696632      	56.635616      	57.27956       	57.782574      	56.95304       	57.03434       	57.33405       	56.90825       	57.316612      	57.11218       	57.113026      	57.17015       	57.04641       	57.15771       	57.284855      	57.279995      	57.19896       	56.91156       	56.973274      	57.521484      	56.953926      	57.142014      	57.766926      	57.075886      	56.883163      	57.295998      	57.0316        	56.805035      	56.9676        	57.194542      	56.439835      	56.061787      	56.713207      	59.8084        	63.527733      	63.605988      	63.46134       	64.34642       	63.79189       	63.94448       	63.898945      	63.58836       	63.872448      	63.894455      	63.89434       	63.8122        	63.495785      	63.977936      	63.963234      	63.964798      	64.08089       	64.33215       	64.31237       	64.19267       	64.32308       	64.76532       	65.71315       	61.601902      	59.112408      	58.68872       	58.51896       	57.545956      	57.356342      	57.372337      	57.587646      	57.346394      	57.41272       	57.427876      	
63.69035       	63.69055       	63.711353      	63.650787      	63.539684      	63.501244      	63.77522       	63.569298      	63.97057       	63.703964      	63.792633      	63.89763       	63.8514        	63.93435       	63.731915      	63.770924      	63.61783       	64.12687       	64.00745       	63.68076       	64.37801       	64.168175      	64.26091       	64.43166       	66.37429       	61.472122      	58.942833      	57.867153      	57.523575      	56.127197      	56.649544      	56.91761       	56.645103      	56.97556       	57.10814       	57.100243      	56.928635      	57.00868       	56.890457      	57.02143       	56.86371       	57.44666       	57.1582        	57.24628       	56.918663      	57.056877      	56.930847      	57.07024       	57.0272        	57.19871       	57.094048      	56.90122       	57.042385      	57.597073      	57.118702      	56.593445      	57.276447      	56.73263       	57.199234      	56.948227      	56.95621       	56.573864      	57.027653      	56.38063       	55.893684      	57.657948      	63.4343        	63.365746      	64.754814      	63.626003      	63.108192      	63.911175      	63.83531       	63.72338       	64.09107       	63.94305       	64.11185       	63.854675      	63.946823      	63.933388      	64.15453       	64.148735      	63.97873       	64.06138       	64.361465      	64.06213       	63.912632      	64.05931       	65.296524      	63.282406      	59.783268      	58.563187      	57.602715      	56.638298      	56.730534      	57.006664      	58.143204      	57.667572      	57.714413      	57.711353      	
63.740284      	63.571926      	63.650593      	63.608524      	64.01284       	63.75269       	63.95698       	63.887318      	63.86098       	63.977825      	63.648556      	63.50964       	64.036354      	63.623154      	64.8513        	63.696293      	64.453926      	63.89686       	64.65058       	64.135765      	63.74729       	63.81299       	63.623325      	64.11617       	65.708466      	63.679398      	59.94739       	58.859562      	57.394054      	56.69289       	57.16103       	56.656353      	57.123592      	56.91019       	57.5447        	57.13881       	57.03787       	57.192986      	57.24789       	57.31139       	56.888824      	57.309856      	57.087215      	57.378696      	57.10545       	56.960903      	57.19312       	57.17306       	56.975616      	57.23708       	57.11987       	57.02946       	57.16724       	57.084988      	57.55701       	57.37076       	57.171833      	56.677288      	56.98302       	57.056694      	56.909958      	56.43981       	56.95392       	56.71275       	56.092182      	56.90139       	61.480484      	64.11014       	63.645676      	63.802803      	64.08377       	64.208046      	64.41355       	63.706036      	63.771862      	63.718357      	63.916885      	63.50282       	63.88224       	63.974407      	63.90356       	64.17267       	64.08401       	64.36234       	64.3006        	64.484856      	64.07817       	64.21883       	65.87519       	63.22796       	59.675957      	58.65493       	58.76078       	57.16577       	57.08697       	57.57264       	57.85392       	57.90976       	58.629208      	58.469017      	
63.921272      	63.88077       	63.869366      	63.865         	63.509727      	64.08197       	63.662148      	63.32113       	64.22371       	64.082184      	63.689556      	63.866318      	63.660152      	63.82187       	63.440872      	64.07206       	63.84804       	63.811474      	63.54428       	64.16312       	63.970917      	63.92303       	63.76616       	64.41705       	64.36904       	65.49504       	60.400414      	59.08469       	57.96527       	57.10017       	56.68664       	57.09607       	57.11901       	56.987503      	57.67637       	57.173847      	57.20311       	57.129246      	57.23008       	57.177937      	57.22817       	57.144043      	57.59545       	56.99558       	56.857273      	57.282635      	57.143257      	57.244534      	57.149204      	57.198444      	57.321823      	57.405624      	57.110977      	57.22429       	57.517967      	56.879993      	57.270897      	57.134766      	57.12184       	57.109386      	57.397415      	56.57932       	57.237747      	55.690388      	57.429802      	57.113953      	60.319313      	63.154594      	63.393375      	63.834835      	63.599777      	63.75751       	64.18461       	64.02958       	63.598373      	63.99453       	63.868076      	64.19503       	64.05716       	63.71202       	63.951836      	63.61837       	64.14616       	64.0311        	64.030914      	64.319214      	64.27971       	64.43124       	65.9428        	63.82014       	60.584053      	58.927654      	57.83629       	57.28885       	56.512096      	56.944077      	57.092815      	57.2149        	57.33077       	57.82104       	
62.8946        	63.51278       	63.36244       	63.735275      	63.568653      	63.74228       	63.54332       	63.659546      	63.87786       	63.920643      	63.709675      	63.53163       	63.61942       	63.802086      	63.77581       	63.698822      	64.01018       	63.589436      	63.99992       	63.805756      	64.11379       	64.160736      	63.917843      	64.36822       	64.25339       	66.40841       	60.92396       	59.065342      	58.286102      	57.02599       	56.967686      	56.623287      	57.095795      	56.783157      	57.145176      	57.068844      	57.410435      	56.853565      	57.268806      	56.91948       	57.457886      	57.055706      	57.202972      	57.316536      	57.072968      	56.87993       	57.179253      	57.079582      	56.877544      	57.379726      	57.189037      	57.22534       	57.01241       	57.1867        	57.336483      	56.733746      	57.05888       	56.962894      	57.584282      	56.36835       	56.59582       	56.847733      	56.94657       	56.47097       	56.086624      	57.179226      	59.558693      	63.48102       	63.054058      	63.97939       	63.61928       	63.639313      	63.9232        	63.875595      	63.94658       	63.67275       	63.674248      	63.928066      	63.688656      	64.13442       	63.664814      	63.39523       	63.677013      	63.929085      	64.17348       	64.088974      	63.81781       	64.04361       	64.34556       	66.00402       	61.166664      	58.822136      	57.897793      	58.054985      	57.27541       	57.151245      	57.12775       	57.407356      	57.871674      	57.68914       	
57.066143      	58.218037      	59.039894      	63.384926      	63.846485      	63.805046      	63.62336       	63.97523       	64.35698       	63.956913      	64.05751       	63.75426       	63.86076       	64.224525      	63.824505      	64.2082        	64.28212       	64.00675       	64.22164       	64.01767       	63.932613      	64.09011       	64.006966      	64.435875      	63.87409       	66.46781       	63.69376       	59.217678      	58.438595      	57.40419       	56.738625      	56.600887      	57.65283       	56.70267       	57.552994      	57.11199       	57.24852       	57.255817      	57.392094      	57.15823       	57.14688       	57.062912      	57.040768      	57.02148       	56.9984        	57.31888       	57.3813        	57.135147      	57.24411       	56.87147       	57.40583       	57.36419       	57.273148      	57.33525       	57.403275      	57.80533       	57.948242      	58.377747      	57.133106      	56.1277        	57.000824      	57.19894       	55.816334      	56.615288      	56.697365      	57.045483      	59.60254       	62.889626      	63.96789       	63.69977       	63.747795      	63.89757       	63.612556      	64.201584      	63.491707      	64.051384      	64.07207       	63.998867      	64.11701       	63.730896      	64.00318       	63.943607      	63.716812      	64.20123       	64.25127       	64.18111       	64.50786       	64.1519        	63.93007       	65.48209       	63.677273      	60.01647       	58.94773       	57.86742       	57.106377      	56.87324       	57.40038       	57.19902       	57.47804       	57.917843      	
55.93997       	56.09406       	56.400433      	59.48739       	63.3091        	63.584682      	63.34403       	63.38153       	63.806522      	63.74696       	63.357273      	63.884655      	63.724785      	63.71842       	63.56709       	63.943375      	63.94505       	63.615593      	63.92004       	63.73079       	63.643208      	63.43663       	64.0432        	64.16793       	63.903946      	65.48834       	64.27952       	60.267075      	58.685734      	57.33895       	56.88856       	56.79919       	56.144466      	56.566185      	57.004696      	57.01396       	57.12034       	56.81835       	57.32606       	57.180115      	57.091454      	56.65406       	57.236893      	56.796513      	56.621574      	57.14309       	57.096912      	56.78728       	57.18997       	56.74248       	56.665066      	57.19088       	57.425514      	56.829815      	57.25634       	56.96141       	56.882225      	57.100384      	56.84509       	56.84358       	56.675133      	57.029015      	56.95969       	55.76933       	56.88762       	57.67145       	57.101994      	62.845985      	63.558334      	63.94773       	63.505604      	63.8221        	63.865673      	63.684437      	63.637753      	63.737774      	64.015205      	63.598434      	64.104164      	64.18425       	64.06721       	63.97369       	63.97247       	63.94702       	64.11113       	64.33292       	64.04636       	64.4293        	64.48204       	66.021164      	63.45028       	59.988876      	58.52106       	57.888107      	57.164604      	57.04933       	57.406         	57.49266       	58.075607      	57.972725      	
56.693012      	56.492863      	56.23686       	58.79801       	63.447174      	63.584827      	63.171856      	64.18489       	63.179436      	63.784702      	63.770996      	62.6435        	62.723335      	63.729885      	63.92435       	63.701393      	63.482048      	64.78566       	65.36168       	63.926514      	65.14575       	64.34981       	63.13015       	63.569157      	63.865776      	64.536995      	65.87506       	61.71329       	59.77606       	59.20411       	57.395332      	56.45489       	57.181988      	56.503296      	56.72872       	57.224277      	56.87653       	56.91817       	56.948753      	57.17663       	56.805836      	56.964733      	56.896088      	56.994118      	56.9533        	56.635212      	57.037167      	57.27833       	56.625523      	57.13131       	56.567623      	56.74861       	57.20492       	57.080215      	56.72897       	56.835484      	56.789528      	57.012207      	56.699406      	56.504463      	56.67328       	56.474625      	56.291756      	56.088875      	56.104782      	55.915047      	55.878166      	61.273067      	63.43993       	63.59432       	63.08783       	63.392754      	63.37402       	63.2886        	63.799652      	63.58632       	63.989334      	63.521675      	63.445713      	63.55453       	63.51612       	63.546185      	63.46619       	63.241573      	63.64079       	63.295147      	63.651825      	63.29051       	63.503544      	63.741356      	64.148315      	59.306095      	58.272682      	57.908897      	57.21478       	57.065666      	57.173267      	56.975163      	57.415745      	57.61587       	
56.19217       	55.6496        	56.406452      	57.5681        	62.166348      	64.21728       	63.140743      	63.172558      	64.130554      	63.232677      	63.697937      	64.89447       	63.259476      	63.374496      	64.21512       	63.149673      	63.57293       	63.28527       	64.47544       	63.108112      	62.934772      	63.958992      	63.56593       	63.426308      	63.690804      	63.525093      	65.225235      	63.71052       	60.63589       	58.09787       	56.53592       	57.4889        	56.800537      	55.73194       	57.03116       	56.861412      	56.66379       	57.137516      	57.240807      	57.111706      	56.835922      	56.688396      	56.903397      	57.054695      	56.663967      	56.636143      	56.91466       	56.484337      	56.86703       	56.873447      	56.847         	56.775208      	56.6858        	56.97466       	56.915455      	56.763924      	57.389458      	56.812523      	56.480976      	57.401833      	56.61375       	56.500687      	56.87938       	55.700447      	56.36921       	55.908566      	55.66165       	59.397533      	63.319977      	63.668736      	63.319782      	63.802696      	63.662453      	63.790653      	63.89326       	63.95619       	63.821983      	63.633736      	64.27064       	63.62583       	63.752056      	63.836227      	64.04762       	63.783615      	63.93895       	63.989105      	63.773296      	63.865353      	64.15923       	65.07048       	64.14246       	61.265804      	58.87018       	58.087387      	57.217678      	56.580273      	56.87984       	57.313824      	57.580173      	57.26043       	
56.053856      	56.021828      	56.888405      	58.34711       	60.567455      	63.033955      	63.66172       	63.522087      	63.642902      	63.63785       	62.716736      	64.85087       	63.697983      	63.321705      	64.082466      	64.88808       	64.29366       	62.7042        	64.0687        	63.790462      	64.16204       	64.11524       	63.0131        	63.89241       	64.094124      	63.958664      	64.74238       	65.54188       	60.30926       	58.396027      	57.45145       	56.655964      	56.582737      	56.770233      	56.993816      	57.061005      	57.32121       	56.772293      	56.908344      	57.128124      	56.842747      	56.90349       	56.803738      	56.935917      	56.668167      	56.80401       	57.24585       	56.652084      	57.26371       	56.895126      	56.460426      	56.678307      	57.175438      	56.862766      	56.93107       	57.131153      	56.835014      	56.79722       	56.919212      	57.11106       	56.63335       	57.16378       	56.76037       	56.2762        	56.51195       	55.787308      	55.496284      	58.40902       	62.55805       	63.21988       	63.589565      	63.5697        	62.95379       	63.837593      	63.535187      	63.575035      	63.99069       	63.87365       	63.830357      	63.880276      	63.64364       	63.34883       	63.60898       	63.84336       	64.21135       	63.50747       	64.0957        	63.864014      	64.080666      	64.069405      	65.4052        	62.828163      	59.483837      	58.281708      	58.069633      	57.736843      	57.214252      	57.463562      	58.36822       	58.214973      	
56.822323      	56.55239       	56.569515      	57.096085      	60.6824        	63.64606       	63.922947      	63.35952       	62.94887       	63.27443       	63.792416      	62.742455      	63.923977      	64.354546      	63.581078      	63.536446      	64.55381       	63.804607      	63.406876      	64.07662       	64.1406        	63.766724      	63.84247       	63.861843      	64.128456      	63.77094       	63.7723        	65.28544       	61.345787      	59.034096      	58.194435      	56.708424      	56.776604      	55.971046      	56.86567       	56.85859       	56.778538      	56.957638      	57.315037      	56.701916      	56.939743      	57.110306      	56.412884      	56.74323       	56.97143       	56.698402      	56.916275      	56.767097      	57.04193       	56.7212        	56.58411       	56.818268      	57.028328      	56.938473      	56.856915      	56.58825       	57.100414      	56.731293      	56.74748       	57.431717      	56.742416      	56.703262      	55.808838      	57.478214      	56.734055      	56.897663      	56.2581        	57.471786      	61.09463       	63.45275       	63.11355       	63.604794      	63.66629       	63.261406      	63.661198      	63.355194      	63.50196       	63.24227       	64.033356      	63.253006      	63.55658       	63.34753       	63.722706      	63.578445      	64.05377       	63.82772       	64.02443       	63.95302       	63.43373       	63.926464      	64.85021       	63.924503      	60.032234      	58.610836      	57.98285       	56.971794      	57.182716      	57.912403      	57.585888      	57.31967       	
56.280407      	56.779526      	56.753216      	56.978214      	59.541267      	63.399532      	63.296688      	63.012524      	63.32002       	63.37033       	62.927414      	63.54636       	63.825596      	64.47323       	64.182014      	63.45792       	62.700737      	64.59834       	63.659332      	63.797382      	63.562885      	64.31188       	63.793053      	63.699963      	64.24743       	63.746048      	64.19587       	65.395164      	62.62794       	59.89543       	58.629597      	56.64507       	56.25743       	56.733242      	56.619625      	56.90589       	56.53329       	56.765472      	56.890648      	56.98939       	57.43852       	56.755993      	56.499207      	56.710533      	56.26853       	57.247753      	56.466705      	56.563953      	56.71027       	56.77251       	56.595814      	56.496662      	56.76905       	56.76549       	56.80067       	56.768448      	56.79823       	57.270294      	56.68161       	56.605022      	57.049988      	56.439323      	56.646095      	56.432102      	56.289997      	56.264         	56.21958       	57.888515      	61.239952      	63.3706        	63.043682      	63.181824      	63.662903      	63.075394      	63.34157       	63.376575      	63.79401       	62.82949       	63.16031       	63.49284       	64.10018       	63.635605      	63.474957      	63.37671       	63.424744      	63.527153      	63.185673      	63.687958      	63.674286      	63.076687      	63.78748       	65.44484       	61.000042      	59.293865      	57.994595      	56.887043      	56.53754       	56.634697      	57.207787      	57.273808      	
56.328007      	56.998325      	56.619114      	55.829693      	58.311848      	62.24644       	63.251923      	63.450043      	63.683205      	63.3924        	63.588448      	63.457893      	63.36829       	63.605824      	63.278366      	63.78442       	63.426414      	63.45946       	63.39867       	63.80902       	63.692287      	64.277306      	64.18101       	63.181545      	64.0617        	63.6206        	63.41247       	64.87411       	62.01502       	59.47351       	58.481983      	56.95354       	56.34212       	56.480133      	58.207596      	57.675034      	56.83956       	56.067417      	58.046135      	56.58429       	56.47059       	57.14024       	56.667324      	56.826935      	56.59359       	56.434807      	57.01783       	56.719864      	56.541996      	56.80088       	56.600693      	56.845325      	56.950043      	56.7452        	56.810093      	56.95888       	56.458656      	57.13458       	56.763626      	56.82539       	56.907875      	56.554432      	56.55056       	56.64646       	56.033363      	56.82196       	55.66472       	56.01109       	59.76          	63.308605      	63.21494       	63.180183      	63.167805      	63.635494      	63.10293       	63.44763       	63.329056      	63.751076      	63.69803       	63.467075      	63.74837       	64.44528       	63.61923       	63.17965       	63.82791       	63.40726       	63.674015      	63.930656      	64.21977       	64.05415       	63.21371       	65.61965       	61.331257      	59.23004       	57.791363      	56.83402       	56.916348      	57.059208      	56.421043      	56.183304      	
56.71812       	56.518024      	56.41764       	56.75207       	57.53197       	61.49017       	63.38699       	63.26658       	64.04982       	63.694927      	63.4225        	63.575375      	63.73057       	63.441074      	63.974808      	63.75221       	64.29508       	63.308407      	64.33228       	63.583206      	63.619003      	64.23469       	64.355835      	63.45798       	63.75496       	63.815075      	64.44371       	64.60432       	64.20064       	59.71377       	58.147923      	57.083797      	56.922485      	57.64924       	56.83277       	57.39241       	56.91221       	59.14939       	57.971363      	56.47515       	57.030865      	57.068527      	56.883278      	57.24648       	57.01703       	56.765266      	57.008987      	56.95967       	56.613262      	56.854122      	57.089737      	56.75076       	57.18583       	56.955666      	56.66818       	57.15179       	57.115715      	57.00154       	56.9271        	57.021824      	56.93797       	56.914036      	57.02316       	57.193253      	56.169376      	56.023422      	56.61976       	56.417545      	58.461613      	62.99736       	63.751385      	63.72303       	63.81929       	63.892612      	63.629997      	63.87688       	63.650295      	63.753456      	63.89214       	63.924736      	64.56029       	64.285934      	64.07378       	64.33307       	64.211266      	64.39636       	64.39431       	64.507416      	64.24482       	64.35054       	64.371826      	65.642914      	62.112194      	58.91857       	58.8552        	58.853092      	58.930542      	57.599552      	57.776093      	57.319786      	
56.518715      	56.926075      	57.0012        	56.23395       	57.0579        	60.072025      	63.259613      	63.760807      	62.92864       	63.69213       	63.282166      	63.596092      	63.521557      	63.384815      	63.364086      	63.261158      	63.429485      	63.35787       	63.941933      	62.85516       	63.874275      	63.562817      	63.45617       	63.539238      	63.72025       	63.662235      	63.58204       	64.35991       	64.404         	59.658855      	58.58654       	57.746624      	57.36935       	57.308678      	56.31043       	57.158928      	56.7126        	56.532906      	57.20397       	57.148674      	57.03244       	57.05283       	57.00811       	57.090805      	57.044758      	56.680134      	56.757233      	57.041332      	56.896477      	56.83917       	56.949177      	57.30173       	57.04902       	56.927788      	57.290134      	57.032597      	57.350124      	57.168358      	57.124237      	57.064888      	56.977596      	56.947105      	57.263527      	57.286057      	56.3305        	56.520332      	56.413906      	55.457245      	58.05915       	61.978954      	63.79886       	63.617107      	63.993565      	63.327194      	63.78593       	63.930058      	63.625984      	63.95852       	63.47137       	63.426083      	63.700832      	63.824944      	64.01881       	63.64146       	64.11351       	64.08908       	64.51233       	64.12862       	64.03091       	64.26923       	64.07246       	65.53403       	63.121006      	61.172184      	61.62716       	60.12287       	58.872375      	58.848083      	58.73804       	58.074825      	
56.493244      	56.945187      	56.920643      	56.69694       	56.860413      	59.94671       	62.98668       	63.72177       	63.254444      	63.138443      	63.55364       	63.414574      	63.68837       	63.419106      	64.001175      	64.57138       	64.29554       	63.843826      	64.16141       	63.423058      	64.46173       	63.91396       	63.065136      	64.45599       	63.18163       	63.496067      	63.695385      	64.286964      	64.48242       	62.196262      	58.975155      	57.894505      	56.992893      	56.549145      	56.87225       	57.53511       	56.92768       	57.250954      	57.084244      	56.813396      	57.281956      	56.907856      	57.24917       	56.815533      	57.36366       	57.11617       	57.117638      	57.346043      	56.70907       	57.043148      	57.00567       	56.847057      	57.24201       	57.399204      	57.326427      	56.88717       	57.407063      	57.075268      	57.22269       	57.298313      	57.21587       	57.25492       	57.176807      	57.61262       	57.09603       	57.628616      	56.57432       	56.412727      	56.452255      	60.214935      	63.3919        	63.90203       	63.81313       	63.87059       	63.34424       	63.861267      	63.633945      	63.84686       	63.55664       	64.03646       	63.60782       	64.0691        	63.909492      	63.450542      	63.911762      	64.04181       	64.278595      	64.34345       	64.16739       	64.49893       	64.51912       	65.59275       	64.83307       	63.83416       	62.674107      	60.963123      	59.874153      	59.536114      	59.645046      	59.678997      	
56.605347      	56.62797       	56.9686        	56.922863      	56.61281       	58.854477      	62.764656      	63.388332      	63.090343      	63.109047      	64.3579        	63.635807      	63.177715      	64.808975      	63.893425      	63.656864      	63.618023      	64.11773       	63.666122      	63.64768       	63.812233      	63.880768      	64.65727       	64.416466      	63.5602        	64.100555      	63.50024       	63.806667      	65.90382       	62.856197      	59.251865      	57.90504       	56.48391       	57.627575      	57.961353      	56.948647      	57.140457      	57.37797       	56.860622      	56.296726      	56.999252      	57.13731       	56.9513        	57.33897       	56.40054       	57.634876      	56.993565      	56.755714      	56.862038      	56.819317      	56.917152      	56.482525      	56.455357      	58.407383      	57.609676      	56.844536      	57.108032      	57.1058        	57.282833      	56.83591       	56.783947      	56.978733      	57.175625      	57.073498      	56.980625      	56.58033       	56.84087       	56.575222      	56.524914      	59.560516      	63.186855      	63.461         	63.50781       	63.83316       	63.46457       	63.89469       	64.0838        	63.74167       	63.856693      	64.54663       	64.17605       	63.891987      	64.054535      	63.89804       	63.692707      	63.829063      	64.04309       	64.18509       	63.92565       	64.45708       	64.17504       	64.66116       	64.65416       	66.20321       	64.75754       	62.798653      	61.839848      	61.09682       	61.085247      	62.004253      	
56.585804      	56.340656      	56.298286      	56.536243      	56.080334      	57.665203      	61.324085      	63.304836      	63.20466       	63.26755       	63.396626      	63.405396      	63.530186      	63.696712      	63.596516      	63.569305      	63.63651       	63.836563      	63.49326       	63.53655       	63.642384      	63.53043       	63.504375      	63.5095        	63.77362       	63.74881       	63.40903       	63.40104       	64.92223       	64.401054      	59.90061       	58.672997      	57.054058      	56.665016      	56.91303       	56.464737      	56.596283      	57.221462      	56.97957       	56.654602      	56.80112       	56.628353      	57.846165      	56.64804       	56.4783        	56.825035      	56.625965      	56.777313      	56.78761       	56.593334      	56.726433      	56.49212       	57.203697      	56.977264      	56.754616      	57.15782       	56.564995      	56.85597       	57.07603       	56.551044      	56.78268       	56.778355      	56.784107      	56.977974      	56.911644      	56.605644      	56.629147      	56.529926      	57.145897      	57.74331       	62.480556      	63.67557       	63.448994      	63.285732      	63.037266      	63.222404      	64.20268       	64.02467       	63.78977       	63.550167      	64.16042       	63.679203      	63.568314      	63.64366       	63.644352      	63.706184      	64.017235      	63.820995      	63.260143      	63.604607      	63.63822       	64.17071       	63.55926       	63.97343       	64.169174      	64.92605       	63.7508        	63.193394      	64.09863       	63.958294      	
56.917576      	56.74012       	55.65533       	56.74538       	56.771286      	57.034523      	58.858837      	63.675255      	63.55744       	63.717106      	63.711437      	64.644165      	63.68092       	64.729195      	64.40153       	63.85305       	63.87845       	64.32594       	63.9016        	64.04008       	63.488495      	63.781933      	63.72494       	63.25347       	64.38301       	64.39355       	63.85165       	64.11677       	63.97239       	65.92723       	60.94033       	58.781055      	58.04577       	56.95821       	56.50166       	57.008217      	57.09481       	56.902283      	57.37198       	57.653645      	56.700706      	58.98662       	57.80451       	56.491848      	55.949387      	56.82381       	56.6826        	56.740856      	56.7237        	57.08613       	56.699997      	57.074852      	56.867844      	56.815216      	56.421215      	56.844296      	57.101696      	56.71448       	57.388474      	56.833626      	57.073383      	57.03049       	56.986885      	56.816406      	56.93751       	56.995808      	56.482147      	56.76399       	56.612488      	57.57004       	60.96619       	63.197536      	63.495426      	63.26065       	63.463806      	63.545918      	63.884624      	63.556225      	64.01847       	63.863937      	63.88211       	63.94394       	63.90746       	63.736115      	63.92985       	63.9139        	63.793236      	63.71568       	63.83762       	64.222885      	63.675724      	63.876556      	64.04774       	64.16972       	64.10272       	64.39008       	64.18182       	63.82383       	63.744102      	63.510544      	
56.601368      	56.84889       	56.17914       	56.13023       	57.16543       	57.11749       	59.122166      	63.046883      	63.463055      	63.018272      	63.13072       	63.110214      	63.442562      	63.007923      	63.42234       	63.71006       	63.22265       	63.538628      	63.555283      	63.41155       	63.526604      	62.909576      	63.23771       	63.327904      	63.74481       	63.124023      	63.204792      	62.84132       	63.765446      	65.246445      	63.151806      	59.832447      	57.78494       	56.606636      	56.738583      	57.392094      	56.596184      	56.878147      	56.92263       	57.22049       	57.01103       	57.20338       	56.799324      	56.947266      	57.121696      	57.26845       	56.76057       	57.119102      	56.64438       	57.115852      	56.76573       	57.1136        	57.087055      	57.029114      	56.717983      	57.104855      	56.926353      	56.946198      	57.350952      	56.75222       	56.800236      	57.40924       	57.042713      	57.332176      	56.87175       	56.67246       	56.88978       	56.635433      	56.409843      	58.087894      	58.752735      	62.530125      	63.693462      	63.738476      	64.07616       	63.6516        	63.672234      	64.067566      	63.841854      	63.692554      	64.463005      	63.583218      	63.769398      	64.04118       	63.522762      	63.75319       	63.399086      	63.75275       	63.986523      	63.605946      	64.48984       	63.95188       	64.00484       	64.07354       	64.51862       	64.562386      	64.972015      	64.02832       	64.18986       	63.604958      	
57.026028      	57.53736       	56.467606      	56.676456      	56.36009       	57.34939       	57.63373       	61.23501       	62.685894      	62.74435       	63.967625      	63.563972      	63.90893       	63.674496      	63.491184      	64.10894       	63.431633      	63.418415      	63.528088      	64.15824       	63.952015      	63.750175      	63.89731       	63.860783      	63.706734      	64.09034       	63.980965      	63.953083      	63.590565      	65.752014      	62.478634      	58.698975      	58.188564      	57.308018      	56.626293      	56.505405      	56.823025      	57.118454      	56.871357      	57.14032       	57.08976       	57.1134        	56.94591       	56.979786      	57.090363      	56.879353      	56.711906      	57.248344      	56.850475      	57.272484      	56.606606      	56.966156      	56.86099       	57.62419       	57.415676      	56.899406      	57.06858       	57.198166      	57.0926        	57.38331       	56.719166      	56.917137      	57.398525      	58.287476      	57.816246      	57.12372       	57.327442      	56.84031       	57.163666      	57.121258      	57.65796       	61.113697      	63.966442      	63.26139       	63.836426      	64.047195      	63.78839       	63.669727      	63.39499       	64.31604       	63.97607       	63.7422        	64.01918       	63.88761       	64.139305      	64.1385        	64.29785       	64.094604      	64.22593       	64.487976      	64.87892       	64.136185      	63.785515      	64.42615       	64.30062       	64.79597       	64.14866       	65.4823        	65.4525        	63.613087      	
56.77425       	57.10594       	56.416313      	57.128666      	56.66612       	57.239437      	58.108006      	60.343513      	63.186455      	63.521088      	63.033333      	63.507587      	63.23907       	63.3853        	63.241264      	63.45413       	63.801067      	63.200787      	63.51354       	63.465427      	63.350437      	63.19562       	63.50616       	63.790077      	63.39516       	63.587112      	63.645527      	63.754456      	63.62992       	65.20797       	63.98846       	60.576984      	58.686573      	58.135075      	56.699883      	56.78937       	57.17719       	56.97691       	56.93127       	57.0063        	56.663826      	57.39278       	57.038654      	56.778667      	57.33421       	56.74877       	56.875103      	57.127594      	56.921207      	56.955498      	57.281776      	56.83669       	56.99168       	57.02854       	57.08519       	56.896046      	57.3387        	56.845352      	56.463932      	57.339584      	57.329483      	57.21588       	57.51765       	58.236855      	58.575745      	58.602497      	57.84859       	57.428257      	57.20025       	56.703403      	58.04546       	61.37337       	63.499737      	63.899284      	63.79681       	63.44426       	64.059006      	63.845367      	64.02537       	63.969875      	64.064445      	64.01294       	63.898117      	64.03013       	63.927143      	63.94952       	64.41444       	64.01144       	64.57154       	66.09968       	64.68842       	63.668003      	62.556305      	63.526474      	64.18008       	64.028984      	63.96571       	63.938114      	64.61682       	64.63395       	
56.824738      	56.50758       	56.567013      	56.32214       	56.580154      	56.49305       	56.503803      	60.143612      	62.935837      	62.851173      	62.755074      	62.938408      	63.480785      	63.235172      	63.267788      	63.291725      	63.245533      	63.053658      	63.428192      	63.268665      	63.78399       	63.469677      	63.389843      	63.73483       	62.910328      	64.224335      	64.54524       	63.708904      	63.186928      	63.473866      	65.029144      	60.123955      	59.538612      	57.683987      	56.455353      	56.43755       	56.68607       	56.98303       	56.72486       	57.123745      	56.747845      	56.865437      	57.236897      	56.761093      	56.677498      	57.065765      	56.435722      	57.187386      	56.718517      	56.879467      	56.488796      	56.835495      	56.1997        	56.92926       	56.15747       	56.998264      	56.313675      	55.81714       	57.362194      	57.137444      	57.03595       	58.71643       	57.92428       	57.897198      	58.694683      	58.672752      	58.458595      	58.476654      	57.601906      	59.91255       	59.785713      	63.376846      	63.63905       	63.85069       	63.589275      	64.140434      	63.758297      	64.11756       	64.012024      	64.175606      	63.742035      	64.07778       	63.74923       	64.206184      	64.20909       	63.754566      	64.0605        	63.68648       	63.83391       	63.688244      	64.42324       	63.731888      	64.19316       	63.900513      	64.0053        	64.10559       	64.290726      	64.54384       	64.76346       	64.66411       	
57.138298      	56.693047      	57.241135      	56.427948      	57.370094      	56.153835      	55.90171       	58.32961       	62.710865      	63.446075      	63.24737       	64.04467       	63.582645      	63.58193       	63.617107      	63.80683       	63.77839       	63.860737      	63.77257       	63.888268      	63.913254      	63.495026      	63.40617       	63.866848      	63.465557      	63.9437        	63.473103      	63.64623       	63.60844       	63.57331       	65.880394      	61.823566      	58.660263      	58.192173      	56.698128      	56.867897      	57.303307      	57.34673       	56.762074      	57.60956       	56.92958       	57.34517       	57.425846      	57.23387       	57.556595      	57.094776      	57.20967       	57.016293      	57.609386      	57.88033       	57.03571       	57.295692      	57.256207      	57.053726      	56.54581       	56.109306      	57.21712       	57.360683      	58.750443      	58.365265      	59.008068      	59.805798      	59.8513        	60.110645      	61.003746      	61.451942      	61.055923      	60.05064       	60.43323       	60.98771       	63.802475      	63.867104      	63.772022      	63.792686      	63.601006      	63.908455      	63.75327       	63.62954       	63.51086       	63.709145      	64.11302       	63.88706       	63.34438       	64.044624      	64.0836        	63.77141       	63.852478      	63.900715      	63.921524      	64.06959       	63.98247       	64.09417       	63.899387      	63.985764      	64.29244       	64.49721       	64.82233       	64.427505      	64.14433       	64.48347       	
56.58384       	57.1349        	56.30549       	56.33256       	57.114326      	56.96759       	56.793877      	57.335125      	62.1695        	63.060997      	63.534157      	63.41321       	63.33632       	63.378906      	63.35833       	63.34988       	63.864037      	63.370857      	63.443684      	63.637886      	63.252445      	63.491505      	63.45877       	63.62449       	63.502934      	63.27175       	63.861156      	63.714634      	64.027626      	63.60982       	65.79484       	63.101665      	59.32171       	58.698856      	57.00741       	56.61259       	56.74503       	56.892075      	57.39384       	57.06404       	57.23459       	56.887093      	57.109066      	57.302017      	57.374424      	56.888107      	56.976425      	56.733494      	57.00663       	55.388138      	57.47271       	55.87953       	57.54516       	57.969986      	57.93681       	57.799675      	58.119194      	58.225616      	58.580227      	60.114044      	59.558086      	60.09077       	60.221497      	60.60515       	61.531845      	63.6159        	63.79293       	63.316914      	63.576733      	63.727875      	63.560005      	64.08319       	63.960007      	63.655922      	63.811993      	63.80685       	63.7244        	63.776592      	64.05676       	63.740425      	63.848354      	64.095085      	63.734562      	64.07206       	63.77619       	63.52784       	63.583996      	63.50096       	63.773182      	63.67388       	63.80199       	64.05883       	63.927063      	63.917725      	63.70221       	64.08629       	64.2944        	64.50146       	64.25749       	64.35634       	
57.12652       	57.07501       	57.499146      	56.903534      	56.564774      	57.691845      	57.461975      	57.719463      	60.696945      	63.336098      	63.19036       	63.52206       	63.49965       	63.467934      	63.810596      	63.2381        	63.52174       	63.506355      	63.523674      	63.488796      	63.38201       	63.972504      	63.752666      	63.690353      	64.03591       	63.95822       	63.915955      	63.92269       	63.861763      	64.30946       	65.41229       	64.59945       	60.064575      	59.498814      	58.14128       	57.211212      	56.773296      	57.552376      	56.941444      	58.170734      	57.744766      	57.43856       	57.189888      	57.508377      	56.962646      	57.51394       	57.802074      	57.01805       	57.503357      	58.562866      	58.355507      	57.851112      	58.539093      	59.681313      	58.597668      	59.006687      	59.69629       	60.20145       	61.500347      	61.192005      	61.98172       	64.02933       	63.40936       	63.52325       	63.40603       	63.29537       	63.714554      	63.534374      	63.33497       	63.942272      	63.817493      	63.453743      	63.76986       	63.425884      	63.878246      	63.57063       	63.6911        	63.5476        	63.820328      	63.797478      	63.886425      	63.738964      	63.636467      	63.704063      	63.70701       	64.005226      	63.746555      	63.868168      	63.491703      	63.606533      	63.7517        	63.895283      	63.61661       	63.596607      	63.748497      	64.07591       	63.86954       	64.27403       	64.16186       	64.01581       	
56.662605      	56.800983      	56.754795      	56.450115      	56.547752      	56.631413      	56.30473       	56.525803      	59.65531       	63.316624      	62.947315      	63.238575      	63.40006       	63.56814       	63.460663      	63.536194      	63.124947      	63.522842      	63.269474      	63.140858      	63.39108       	63.65995       	63.332355      	63.72965       	63.692215      	63.487442      	63.5361        	63.541454      	63.382412      	63.490273      	65.0207        	65.16951       	59.74641       	58.543606      	58.366047      	57.471893      	56.905212      	56.98436       	57.367386      	57.297092      	57.43731       	57.67142       	57.936165      	57.698597      	57.3088        	57.073658      	58.469357      	58.49848       	58.911377      	58.688755      	57.858814      	59.799007      	60.03951       	60.455463      	60.327595      	62.14778       	61.63103       	63.740128      	63.366913      	63.712467      	64.05257       	64.25644       	63.481956      	63.57632       	62.849392      	63.40872       	63.12776       	63.48608       	62.996487      	63.51972       	63.749836      	63.913067      	63.607475      	63.22487       	63.4928        	63.36787       	63.888607      	63.30188       	63.82111       	63.91922       	63.43631       	63.800106      	63.836464      	64.25891       	63.611805      	63.517517      	63.828964      	63.986202      	63.963566      	63.601772      	63.337257      	63.59498       	63.684814      	63.804104      	63.84596       	64.14776       	63.981396      	64.15631       	64.331795      	64.63763       	
56.568974      	56.590157      	57.55279       	56.76132       	55.96507       	56.32478       	55.951122      	56.01503       	59.29853       	63.06886       	63.177944      	64.5438        	63.24811       	64.252914      	64.89356       	63.719955      	63.85385       	63.157387      	62.99273       	63.35624       	63.783966      	63.363846      	63.493187      	63.488773      	63.3388        	63.18859       	63.34543       	63.395294      	63.75609       	63.75237       	63.113842      	65.43721       	60.526844      	59.711666      	58.30204       	57.930225      	58.188522      	58.525505      	56.96605       	57.469276      	57.258183      	56.47641       	59.094753      	58.516594      	57.58114       	57.966106      	58.69366       	59.231354      	59.56963       	59.27228       	60.069042      	61.118347      	63.3174        	63.30649       	63.89996       	63.621464      	63.40047       	63.299675      	63.82987       	63.247414      	63.45671       	63.424072      	63.554256      	63.382423      	63.294006      	63.45541       	63.3653        	63.164444      	63.506485      	63.82391       	63.15879       	64.21817       	63.840275      	63.325138      	63.52498       	63.36574       	63.50013       	63.268883      	63.421593      	63.48814       	63.284096      	63.684673      	63.698437      	63.639694      	63.77967       	63.97766       	63.61735       	64.10442       	63.59207       	63.851864      	63.824802      	63.8745        	64.21917       	63.821827      	63.76789       	65.13385       	64.6979        	64.41494       	63.68857       	64.20352       	
56.322678      	56.713448      	57.119987      	56.277546      	56.217155      	56.365765      	56.201508      	56.564037      	58.54698       	62.610867      	63.22808       	62.565998      	64.436646      	63.093174      	63.52947       	63.294346      	63.517193      	63.30873       	63.57923       	63.523094      	63.58537       	63.87046       	63.500065      	63.860508      	63.86879       	63.42828       	63.407936      	63.7409        	63.949955      	64.43915       	64.22883       	64.985504      	62.95239       	61.09327       	59.942627      	59.429623      	59.443855      	58.770226      	57.957752      	58.262123      	58.497208      	58.14009       	59.697304      	59.93999       	59.091305      	59.857162      	60.684536      	62.000015      	63.335705      	63.794357      	63.390636      	63.333855      	63.444088      	62.94493       	63.258495      	63.061836      	62.998913      	62.958813      	63.408         	63.147526      	63.288982      	62.94798       	63.34189       	63.80858       	63.554546      	63.720043      	63.801025      	64.116135      	62.9214        	63.93982       	63.729076      	63.959286      	62.741184      	63.393425      	63.09303       	63.39301       	63.40549       	63.663723      	63.329662      	63.244404      	63.513504      	63.43648       	63.853188      	63.749428      	63.511185      	63.513607      	63.463657      	63.74662       	63.350506      	64.57023       	64.086464      	63.970474      	63.884655      	63.483795      	63.407227      	63.540745      	63.69542       	63.9638        	64.16514       	64.580025      	
56.643875      	57.416866      	56.891323      	56.86316       	56.892338      	56.438328      	56.405304      	56.22318       	56.645782      	61.044342      	63.519333      	63.1701        	63.368305      	63.613575      	63.10845       	63.738846      	63.77971       	63.205547      	63.53816       	63.820606      	63.60646       	63.739216      	63.925488      	64.34947       	64.52899       	63.915874      	63.60814       	63.891808      	63.969547      	64.038025      	64.21886       	64.46327       	65.66995       	62.314743      	63.094128      	60.69223       	59.49147       	59.98585       	60.375546      	60.76744       	61.0402        	61.193512      	61.33488       	61.925995      	61.83085       	63.779274      	63.558884      	63.300934      	63.32521       	63.59962       	63.33387       	63.30395       	63.392197      	63.33914       	63.503403      	63.567204      	63.45508       	63.153408      	63.5181        	63.37621       	63.355736      	63.44294       	63.72538       	63.26214       	63.322056      	63.5877        	63.0957        	63.621616      	63.84431       	63.210228      	65.437515      	64.22246       	63.50192       	63.988487      	63.20636       	63.56769       	63.740852      	63.33921       	63.43338       	63.20935       	63.5452        	63.647625      	63.482494      	63.523685      	63.415993      	63.6328        	64.13925       	63.658615      	63.786472      	64.35117       	63.891323      	64.10879       	63.917957      	63.88031       	64.20421       	64.2858        	64.11131       	63.800133      	64.02155       	64.42874       	
56.839615      	57.2068        	57.102646      	57.01577       	57.345078      	56.22721       	56.80116       	56.484837      	56.47501       	59.987183      	63.177773      	63.00775       	63.38885       	63.50619       	63.218796      	63.518414      	63.56343       	63.603928      	63.658607      	63.21977       	63.412975      	63.665077      	63.419304      	63.653152      	63.905457      	63.634254      	63.61212       	63.66242       	63.597427      	63.609013      	63.950546      	64.3336        	63.96102       	65.86859       	63.820454      	62.349945      	60.981968      	61.576065      	61.802628      	63.587234      	63.71598       	63.683758      	63.592373      	63.652027      	63.089794      	63.82101       	63.06711       	63.396618      	63.312733      	63.06574       	63.330605      	63.199516      	63.206013      	63.304947      	62.966064      	63.185352      	63.525265      	63.438496      	63.154152      	63.444557      	63.2812        	63.468475      	63.439835      	63.613712      	63.937725      	63.54691       	63.57709       	63.400814      	63.458477      	63.37492       	63.203857      	63.636707      	63.732887      	63.746         	63.656765      	63.946804      	63.844723      	63.452488      	63.659523      	63.621685      	63.802685      	63.83072       	63.692944      	63.646         	63.57416       	63.922287      	63.76421       	63.639545      	64.04708       	63.886124      	63.4363        	63.93401       	64.556755      	64.07798       	64.01084       	64.2509        	63.800774      	63.92466       	63.92872       	64.585976      	
56.78153       	57.296486      	56.855156      	56.673267      	56.99754       	56.71457       	57.29086       	55.920998      	57.443176      	59.246525      	62.630356      	63.769367      	62.8929        	63.283993      	62.805256      	63.27313       	63.809612      	64.028244      	63.254147      	63.727196      	63.480648      	63.70622       	63.12634       	63.492733      	63.123383      	63.468067      	63.57646       	63.742504      	63.14755       	63.26806       	63.205524      	64.00647       	63.273727      	63.94854       	63.41531       	63.348373      	63.946404      	63.082058      	63.109383      	63.669563      	63.14093       	63.27784       	63.180065      	63.304924      	63.393707      	63.059875      	63.121418      	63.142757      	62.94615       	63.134533      	63.195126      	63.266148      	63.030006      	62.78322       	63.30355       	62.983376      	63.272808      	63.03731       	63.37603       	63.145996      	63.287045      	62.71499       	63.167377      	63.37135       	62.8641        	62.845646      	63.31846       	63.195595      	63.179405      	63.04586       	63.081974      	63.094296      	62.8409        	64.0767        	63.329834      	63.04788       	64.17044       	63.204277      	63.203907      	63.342106      	63.450996      	63.12439       	63.380173      	63.566486      	63.50924       	63.411175      	63.667007      	63.57747       	63.715767      	63.854935      	63.614006      	63.800213      	63.750572      	63.43556       	63.955826      	63.558475      	64.06036       	64.61164       	65.267204      	65.13144       	
56.711086      	56.854         	57.064545      	56.501404      	56.8942        	56.871         	56.713528      	56.408558      	56.361916      	57.598145      	61.280872      	63.654606      	63.121964      	63.583447      	63.36465       	63.36555       	64.03623       	63.47466       	63.257355      	63.44655       	64.09693       	63.75901       	63.327957      	63.470036      	63.59224       	63.70631       	63.47374       	63.636967      	63.09776       	64.24189       	63.380894      	63.65141       	63.35642       	63.977448      	63.85403       	63.881096      	63.46909       	63.260628      	63.637726      	63.235252      	63.493683      	63.31578       	63.373077      	63.532475      	63.420853      	63.184082      	63.33553       	63.37121       	63.491356      	63.239777      	63.194885      	63.50689       	63.53927       	63.084938      	63.068043      	63.4752        	63.05441       	63.34704       	63.277588      	63.249496      	63.505054      	63.534504      	63.582996      	63.302746      	63.497513      	63.578686      	63.79313       	63.426327      	63.28532       	63.364796      	63.437153      	63.32854       	64.01437       	63.82303       	63.787792      	63.871655      	63.77086       	63.666836      	63.719463      	63.933628      	63.722057      	63.606026      	63.73204       	63.258854      	63.82678       	63.40194       	63.9934        	63.672035      	64.04487       	63.49151       	64.058395      	63.48277       	63.56258       	63.91923       	63.45462       	63.953693      	63.939964      	64.033905      	64.57567       	64.99396       	
56.71625       	56.889877      	56.65464       	57.237038      	56.74448       	56.726116      	57.70524       	56.59897       	56.190422      	56.923344      	59.896744      	63.430668      	63.462307      	63.02716       	63.229866      	63.33346       	63.321236      	63.262955      	63.539692      	63.35297       	63.29134       	63.38459       	62.921886      	63.340015      	63.367886      	63.600533      	62.922855      	63.553265      	63.356724      	63.207764      	63.548748      	63.660137      	63.356373      	63.27673       	63.606087      	63.170334      	63.79654       	63.205605      	63.36806       	63.300236      	63.46264       	63.289993      	63.17069       	63.108864      	63.5517        	63.06372       	63.113243      	63.283676      	62.910366      	62.93552       	63.11426       	62.784775      	62.837074      	63.060944      	63.316936      	63.29389       	63.145077      	62.914177      	63.02093       	63.351204      	63.12953       	63.288624      	63.22727       	63.168213      	64.169525      	63.342533      	63.483635      	63.287376      	62.98276       	63.425484      	63.16355       	63.75078       	63.58004       	63.31398       	63.389767      	63.517273      	63.80185       	63.467144      	63.31104       	63.2325        	63.806477      	63.79446       	63.302593      	63.92904       	63.755806      	64.11894       	63.79665       	63.639133      	64.0386        	63.576233      	63.37502       	63.600655      	64.188644      	63.63374       	63.81428       	64.17857       	64.2197        	64.25799       	64.598015      	65.00227       	
56.72688       	57.0986        	56.97113       	57.06022       	56.828693      	56.585777      	56.25576       	56.518234      	56.18375       	56.928177      	59.395218      	63.090553      	63.39401       	63.14348       	63.507797      	63.62711       	63.13648       	63.685463      	63.384014      	63.569603      	63.400085      	63.581837      	63.3518        	63.55353       	63.191795      	63.51588       	63.32311       	63.433388      	63.551598      	63.538975      	63.22805       	63.319267      	63.472378      	63.257374      	63.691723      	63.398586      	63.73278       	63.19492       	63.570385      	63.48553       	63.560787      	63.478436      	63.37225       	63.130943      	63.171097      	63.322243      	63.277897      	63.105915      	63.078346      	63.16506       	63.40006       	63.214054      	63.14165       	63.527313      	63.13781       	63.326958      	63.5118        	63.335476      	63.151947      	63.206142      	63.39996       	63.392395      	63.496105      	63.2343        	63.737797      	63.977104      	63.146347      	63.870613      	63.38631       	63.35555       	63.662754      	62.87613       	63.765         	63.484695      	63.615597      	63.540066      	63.66203       	63.58133       	63.50602       	63.614197      	63.93155       	63.401962      	63.56749       	63.3663        	64.0764        	63.634315      	63.762657      	63.54552       	64.17044       	63.428463      	63.76286       	63.850494      	63.92988       	63.381195      	63.55156       	63.887367      	64.0567        	63.883316      	64.41143       	64.554565      	
56.454594      	57.123325      	56.943943      	56.787464      	56.619568      	57.050354      	57.277702      	57.16161       	57.331184      	56.548836      	58.388542      	62.559372      	63.049656      	63.60752       	63.153122      	63.139923      	63.46128       	63.150116      	63.35552       	63.48807       	63.454414      	63.606697      	63.62885       	63.191166      	63.34801       	63.49594       	63.24303       	63.582767      	63.272274      	63.788258      	63.270027      	63.331696      	63.62165       	63.282303      	63.220356      	63.734894      	63.243706      	63.201115      	63.25668       	63.47261       	63.003414      	63.333317      	63.67548       	63.15588       	63.31796       	63.12519       	63.461452      	63.34922       	63.659702      	63.22205       	63.332127      	63.38953       	63.344925      	63.299187      	63.65349       	63.307907      	63.191135      	63.337906      	63.417877      	63.470093      	63.28676       	63.797733      	63.608864      	63.201164      	63.637894      	63.45781       	63.619564      	63.480743      	63.477848      	63.39654       	63.86956       	63.906536      	63.42176       	63.62035       	63.507965      	63.406387      	64.11317       	63.485447      	63.83093       	63.56988       	63.113197      	64.461044      	63.688393      	63.763783      	63.465538      	63.888504      	63.818684      	63.350357      	63.96362       	63.307796      	63.51769       	63.354515      	63.723232      	63.824425      	63.960773      	63.80133       	63.963943      	63.746708      	64.10567       	64.28681       	
57.11956       	58.103813      	56.60995       	57.45162       	57.568493      	58.20838       	57.83649       	57.88048       	59.186016      	59.675087      	59.45983       	62.73506       	64.100266      	62.962536      	63.23358       	63.33104       	63.187077      	63.439854      	63.20378       	63.222942      	63.692875      	63.778477      	64.10881       	63.739838      	63.291145      	63.41368       	63.58791       	62.964634      	63.933468      	63.16481       	63.28093       	63.328857      	63.16373       	62.99297       	63.026398      	64.21432       	64.06154       	63.240215      	63.103916      	63.149414      	63.21706       	63.05165       	64.0066        	63.54455       	62.713764      	63.217278      	63.10675       	63.118313      	63.272964      	63.56077       	63.432972      	62.6739        	63.243248      	63.27038       	62.944435      	62.870537      	63.149944      	62.925076      	63.015896      	63.27796       	63.552277      	63.11645       	62.904026      	63.174038      	63.31552       	63.40819       	63.153442      	63.156857      	63.06722       	62.64404       	63.048946      	63.33751       	63.439064      	63.365894      	63.301914      	63.601974      	63.324883      	63.424576      	63.302017      	63.738617      	63.430786      	63.15946       	63.4418        	63.488415      	63.35088       	63.33897       	63.135654      	63.550854      	63.63349       	63.6064        	63.332146      	63.227108      	62.92039       	63.28511       	63.56716       	63.3734        	63.97211       	63.625664      	63.4252        	63.77119       	
58.286922      	58.323753      	59.024223      	58.09901       	57.961254      	59.389523      	58.85504       	59.702686      	60.733         	61.34991       	62.422134      	63.379997      	62.919167      	63.036613      	63.272305      	63.026623      	63.06443       	63.28279       	63.134087      	63.45926       	62.815926      	63.558285      	63.515266      	63.673157      	63.595535      	63.38262       	63.331974      	63.172443      	63.25371       	63.503815      	63.22246       	63.513527      	63.128654      	63.61639       	63.42716       	62.80005       	64.16785       	63.073364      	63.0439        	63.295506      	63.401108      	63.908592      	63.077377      	62.78009       	63.16857       	63.037617      	63.161674      	63.00731       	63.142567      	63.195274      	63.008423      	62.853638      	62.89097       	62.93789       	62.934254      	63.130283      	62.947716      	62.987278      	63.072773      	62.96743       	63.181343      	62.60016       	62.942875      	63.19629       	63.272213      	63.28704       	63.24156       	63.313507      	62.992794      	63.323036      	63.260933      	63.13914       	62.72811       	63.10474       	63.208324      	63.524323      	63.11938       	62.939137      	63.407543      	63.123966      	63.340565      	63.207684      	63.042984      	63.24605       	62.83747       	63.270096      	63.017662      	63.70439       	63.430744      	63.05971       	63.08238       	63.32294       	63.138016      	63.290203      	63.268757      	63.384468      	63.48268       	63.266582      	63.298958      	63.75775       	
59.74466       	59.14986       	59.515923      	59.792828      	60.50743       	60.877827      	63.488018      	63.244358      	63.07812       	63.580357      	62.94604       	63.185795      	63.330887      	63.031223      	63.383312      	63.12343       	63.16636       	63.43612       	63.158924      	63.371693      	63.34285       	63.431454      	63.31595       	62.96038       	63.265705      	63.82931       	63.44109       	63.20317       	63.482075      	63.54142       	63.45348       	63.471634      	63.359432      	63.547394      	63.21622       	63.7468        	63.17906       	64.19115       	62.664276      	63.404385      	63.144802      	63.0976        	63.266346      	63.143417      	63.11222       	63.242374      	63.113804      	63.08873       	63.496506      	63.498524      	62.937775      	63.12927       	63.364483      	63.149734      	63.15117       	63.376         	62.951603      	63.073822      	63.406425      	63.210926      	63.131958      	63.129417      	63.37879       	63.00414       	63.864986      	63.292934      	63.085537      	62.708         	63.198868      	63.297596      	63.151608      	62.916946      	63.383316      	63.243214      	63.243126      	63.564365      	63.543453      	63.450928      	63.356583      	63.196384      	63.237316      	63.67047       	63.297215      	63.272697      	63.504524      	63.089146      	63.515266      	63.416317      	63.441635      	63.625034      	63.82977       	63.48945       	63.5277        	63.16334       	63.364304      	63.630993      	63.514847      	63.757553      	63.80828       	64.069824      	
60.897827      	61.051506      	62.569714      	64.02422       	63.479225      	63.530136      	64.47307       	63.262028      	63.511242      	63.65928       	63.39976       	63.06756       	62.995346      	64.16526       	63.055378      	63.452076      	63.319675      	63.592712      	63.381462      	63.720764      	63.30224       	63.727627      	63.25071       	63.145927      	63.781902      	63.456886      	63.402798      	63.75782       	63.05488       	63.447735      	63.51159       	63.462616      	63.23341       	63.384212      	63.42083       	63.654587      	63.594437      	63.525375      	63.37581       	63.627968      	63.49333       	63.782276      	63.516895      	63.421005      	63.772743      	63.27288       	63.093876      	63.265114      	63.462505      	63.457645      	63.426773      	63.308376      	63.389618      	63.566063      	63.722202      	63.4557        	63.519104      	63.371853      	63.316383      	63.664185      	63.372494      	63.569374      	63.373276      	63.391785      	63.532692      	63.31677       	63.139027      	63.55233       	63.2516        	63.50212       	63.665974      	63.605923      	63.291607      	63.474236      	63.689674      	63.57284       	63.828102      	63.757004      	63.854244      	63.92942       	63.650723      	64.135796      	63.512775      	63.679886      	63.47621       	63.786682      	63.802086      	63.63824       	63.960995      	63.813416      	64.028595      	63.583538      	63.657124      	63.877277      	63.86366       	64.11424       	63.631985      	64.22293       	64.34853       	63.776897      	
63.2971        	64.1489        	63.43368       	63.480873      	63.534496      	63.540478      	63.595703      	63.546017      	63.469666      	63.219906      	63.52311       	64.060936      	63.83917       	63.45888       	63.547195      	63.095684      	63.671204      	63.700832      	63.4789        	63.30324       	63.76705       	63.706066      	63.07028       	63.639732      	63.714508      	63.483624      	63.71489       	63.514248      	64.03229       	63.76455       	63.33545       	63.61556       	63.60989       	63.519245      	63.648285      	63.276154      	64.36183       	63.64071       	63.665756      	63.435028      	63.311676      	63.632572      	63.84002       	63.574287      	63.468834      	63.665005      	63.64663       	63.41096       	63.41909       	63.782314      	63.50104       	63.49301       	63.38341       	63.5777        	63.51184       	63.419373      	63.680893      	63.43459       	63.770912      	63.409218      	63.628902      	63.40342       	63.52772       	63.61776       	63.594864      	63.36821       	63.482693      	63.77733       	63.34618       	63.385567      	63.895977      	63.45455       	63.355385      	63.77772       	63.769085      	63.84647       	63.88904       	63.589287      	63.538868      	63.616596      	64.116646      	63.664223      	63.662174      	63.6566        	63.45914       	63.67864       	63.781296      	63.759823      	63.591434      	64.37071       	63.64041       	63.949753      	63.71931       	63.930225      	63.743088      	63.942287      	63.82668       	63.785572      	64.40999       	64.390686      	
63.469677      	63.32927       	63.476334      	63.120876      	64.31981       	63.587925      	63.402287      	63.589596      	63.451107      	63.52446       	63.615368      	63.670467      	63.62351       	63.631004      	63.553528      	63.787827      	63.427376      	63.668213      	63.51813       	63.66955       	63.764782      	63.52768       	63.738914      	63.521633      	63.873936      	63.750443      	63.62271       	63.163273      	63.28552       	63.71543       	63.7079        	63.683105      	63.762413      	63.451603      	63.805397      	63.751507      	63.35305       	63.658333      	63.59834       	63.142365      	63.610966      	63.67707       	63.497055      	63.468025      	63.568157      	63.70446       	63.56839       	63.146896      	63.536674      	63.799263      	63.69567       	63.913868      	63.604996      	64.02124       	63.682384      	63.235172      	63.60279       	63.639374      	63.53545       	63.583355      	63.656097      	63.55124       	63.692085      	63.25488       	63.742737      	63.802513      	63.76412       	63.898155      	63.764175      	63.920597      	63.902695      	63.748104      	63.80557       	63.722153      	63.89273       	63.59054       	64.323944      	64.13818       	63.890617      	63.800526      	63.83986       	63.965813      	64.06276       	63.83449       	63.90896       	64.08456       	63.928547      	64.299126      	63.866802      	64.01337       	64.03352       	63.891056      	64.037834      	64.17066       	64.135635      	64.697014      	64.59667       	64.444984      	64.4965        	65.394485      	
63.549625      	63.68876       	63.590466      	63.78628       	63.842964      	63.190426      	63.327946      	63.654484      	63.153927      	63.585876      	63.429924      	63.55543       	63.636852      	63.881207      	63.00363       	63.909798      	63.359722      	63.789223      	63.820904      	63.503544      	63.70163       	63.510853      	63.812496      	63.572693      	63.96372       	64.03991       	63.823006      	64.08566       	63.869946      	63.597717      	63.806427      	63.868088      	63.66427       	63.885567      	63.601093      	63.576817      	64.106094      	64.02558       	63.986603      	63.48933       	63.634434      	64.137405      	63.923138      	64.51346       	63.421867      	62.06043       	63.20857       	63.667023      	63.86276       	64.06453       	63.707684      	63.542805      	63.646957      	64.13611       	63.79733       	63.750935      	63.770985      	63.631824      	63.58835       	63.574593      	63.730404      	63.53116       	63.33248       	64.38522       	63.71236       	63.703777      	64.12776       	63.881237      	63.76916       	63.49699       	63.963337      	63.735065      	63.56937       	63.330666      	63.62533       	63.848972      	64.01511       	63.712112      	64.07577       	64.00985       	63.606056      	64.35072       	64.1804        	63.901405      	64.13487       	63.729797      	64.658875      	63.651497      	64.220406      	63.930885      	63.68158       	64.03183       	63.91947       	64.35869       	64.55373       	64.17898       	64.2545        	64.59695       	66.5945        	66.41654       	
63.220413      	63.254154      	63.231438      	63.416676      	63.292618      	63.28551       	63.259827      	63.50043       	63.265575      	63.320473      	63.521164      	63.18432       	63.220367      	63.422188      	63.348373      	63.644108      	63.3659        	63.455357      	63.817074      	63.24282       	63.653175      	63.36377       	63.523857      	63.48228       	63.36506       	63.373325      	63.76175       	63.531124      	63.716114      	63.544777      	63.323483      	63.519184      	63.34092       	63.43729       	63.83874       	63.539516      	63.66674       	63.593         	64.28987       	62.9575        	65.59412       	64.05333       	64.24172       	64.146385      	63.41744       	62.655827      	64.08801       	63.81607       	63.788677      	63.5949        	63.013577      	63.72677       	63.624584      	63.843502      	63.804928      	63.680923      	63.35166       	63.78295       	63.636692      	63.691166      	63.501         	63.39255       	63.552135      	63.708954      	63.539295      	63.557365      	64.05992       	63.472595      	63.411003      	63.642567      	63.791203      	63.44824       	63.358395      	63.697735      	63.632042      	63.680115      	64.0636        	64.0078        	63.74673       	64.23061       	64.191795      	63.681175      	63.92016       	63.696262      	63.716637      	63.985104      	63.664257      	64.14879       	64.409744      	63.85105       	63.87591       	64.400444      	63.62793       	63.870102      	64.42448       	64.52249       	64.16503       	65.971436      	66.44118       	64.6225        	
63.443844      	63.742134      	63.618378      	63.331474      	63.376503      	63.651012      	63.363842      	63.548332      	63.91707       	63.2348        	63.14983       	63.320675      	63.48535       	63.32788       	63.689625      	63.55213       	63.04364       	64.2814        	63.710896      	63.701         	63.554047      	63.457077      	63.64253       	63.56564       	63.24507       	63.618084      	63.53012       	63.3773        	63.892868      	63.478626      	63.447994      	63.56365       	63.895496      	63.331223      	63.679077      	63.864098      	63.660786      	63.482815      	63.984344      	63.310413      	63.236824      	63.476616      	63.426704      	63.698334      	63.514034      	63.510956      	63.294716      	63.699223      	63.471844      	63.477985      	63.79265       	64.06617       	63.168186      	64.07649       	63.550007      	63.619617      	63.20698       	63.45478       	63.68177       	63.89623       	63.77911       	63.93191       	63.54378       	63.69696       	63.754658      	63.762398      	63.73615       	63.88887       	63.5384        	64.04485       	63.68066       	63.05664       	63.987286      	63.51119       	63.56253       	64.50126       	63.732735      	64.13426       	63.707993      	64.495415      	63.91148       	63.649605      	63.754467      	64.39128       	64.01214       	63.603912      	64.3959        	63.993137      	63.867176      	64.02243       	64.311584      	63.95333       	63.97301       	63.410583      	64.32892       	64.622215      	64.00242       	66.05921       	66.60118       	64.00789       	
62.53568       	63.314606      	62.865562      	63.630257      	63.854214      	63.28301       	63.44419       	62.88516       	63.041824      	62.832657      	62.806793      	63.057766      	63.00374       	63.365395      	63.554626      	63.381817      	62.988686      	63.318375      	62.904808      	63.482185      	63.59616       	63.47418       	62.66138       	63.48978       	63.34618       	63.668766      	63.59659       	63.321133      	62.865612      	63.325966      	63.664623      	63.394867      	63.48972       	63.45112       	63.076767      	63.42437       	63.547028      	63.689857      	63.826717      	63.287376      	63.354565      	63.079197      	63.42422       	63.041824      	63.791264      	63.45635       	63.282856      	63.58385       	63.587643      	63.83869       	63.406975      	63.599457      	63.81442       	62.889595      	63.07241       	63.31068       	63.16633       	63.384697      	63.432323      	63.347233      	63.299866      	63.083084      	63.56975       	63.3845        	63.20462       	63.352386      	63.690098      	63.55351       	63.271393      	63.35681       	63.426388      	63.27685       	63.398273      	63.309986      	63.318607      	63.692234      	63.40458       	63.49628       	63.277077      	63.365227      	63.501987      	63.803158      	63.6916        	63.794434      	63.4024        	63.221443      	63.95054       	63.63142       	63.371338      	63.71183       	63.590763      	63.558197      	63.683315      	63.87514       	64.24365       	64.06304       	64.26106       	65.54106       	66.33901       	65.29407       	
63.0965        	63.141922      	63.134315      	62.811737      	63.408524      	63.25157       	62.854538      	62.9808        	63.08496       	62.622395      	62.863808      	62.75684       	64.0848        	62.98553       	63.241447      	63.090668      	63.106525      	63.085583      	63.551754      	63.081104      	63.496548      	63.076958      	63.53858       	63.020874      	62.963223      	63.229576      	63.129944      	63.037376      	63.262318      	63.771725      	63.266483      	62.806305      	63.359425      	63.125183      	63.038174      	63.03144       	63.225014      	63.228992      	63.400326      	63.564915      	63.003742      	62.88168       	63.05879       	62.946316      	63.292416      	63.04614       	62.97618       	63.59093       	63.058064      	63.183743      	63.643265      	63.529793      	63.508495      	62.919113      	63.362904      	63.25344       	63.477257      	63.182922      	63.17759       	63.141136      	63.927128      	63.20647       	63.257206      	63.651432      	63.275158      	63.55756       	63.33188       	63.569073      	63.85723       	62.972446      	63.4632        	64.35827       	63.27269       	62.597847      	63.325188      	63.500465      	63.892307      	63.31215       	64.08044       	63.507374      	63.873646      	64.02526       	63.67656       	63.48806       	63.240437      	64.077446      	64.00293       	63.6044        	64.00272       	63.835125      	63.8475        	63.757824      	64.023544      	64.198875      	63.857204      	63.711056      	63.763477      	65.100655      	66.55158       	65.62049       	
62.872414      	63.20555       	63.228134      	63.22284       	63.379536      	62.790344      	63.47082       	63.411007      	63.41006       	62.59736       	62.466385      	63.62078       	62.934307      	62.849194      	63.34998       	62.985893      	62.816647      	62.87907       	63.058384      	63.19444       	62.98233       	63.28328       	63.432335      	63.16475       	63.48426       	63.011658      	63.13001       	63.39436       	63.25779       	63.36888       	63.295887      	63.310406      	63.016808      	63.33263       	63.125458      	63.18184       	63.356964      	63.219772      	63.340153      	63.026913      	63.658783      	62.9167        	63.11074       	63.114353      	63.285767      	63.256         	63.3969        	64.43577       	63.51116       	62.72809       	63.291626      	63.825157      	63.142757      	63.134777      	63.40259       	63.027473      	63.201466      	62.98612       	63.01762       	63.527214      	63.122147      	63.102314      	62.942207      	62.99731       	63.280746      	63.5308        	62.976124      	63.31649       	63.912155      	63.442448      	63.162727      	63.029594      	63.24821       	63.087563      	63.283936      	63.62489       	63.429024      	63.613525      	63.596497      	63.34225       	63.459625      	63.45157       	63.13987       	63.238384      	63.505867      	63.536915      	63.537952      	63.718513      	63.838562      	63.9407        	63.966377      	63.83478       	63.773743      	63.82933       	63.985535      	64.26182       	64.061325      	64.57599       	66.08288       	65.683105      	
63.36096       	63.177635      	63.330933      	63.420135      	63.46478       	63.356464      	63.42524       	63.418377      	63.817547      	63.41761       	63.358276      	63.57414       	63.80322       	63.651035      	63.748013      	63.541176      	63.7877        	63.526752      	63.623276      	63.498074      	63.571903      	63.46443       	63.638367      	63.832035      	63.673504      	63.9096        	63.611416      	63.5691        	63.433147      	64.072914      	63.68804       	63.574173      	63.7506        	63.397522      	63.464836      	63.716755      	63.82327       	63.817196      	63.72287       	63.771248      	63.53528       	63.753002      	63.686363      	63.31719       	63.76671       	63.691948      	63.786877      	63.42688       	63.50627       	63.56639       	63.60627       	63.395         	63.852455      	63.48074       	63.660046      	63.566254      	63.7001        	63.776684      	63.714508      	63.65065       	63.713757      	63.715977      	63.94418       	63.780266      	63.51181       	63.743275      	63.712074      	63.649548      	63.926075      	64.08819       	65.40198       	63.484764      	60.470245      	59.290897      	59.477554      	60.213585      	61.47004       	61.959896      	63.505207      	63.748535      	63.665447      	63.49304       	63.84518       	63.5963        	64.02805       	64.16283       	63.828003      	63.71205       	63.95487       	63.941746      	64.15541       	63.98041       	63.819527      	63.760902      	64.13402       	63.892418      	64.11264       	64.17018       	66.9525        	66.57683       	
62.752213      	63.1483        	62.65953       	62.746986      	63.176926      	62.933243      	62.87307       	62.870644      	63.22607       	62.776928      	62.86207       	63.01174       	62.951214      	62.96346       	63.052402      	63.233234      	63.431046      	63.212345      	63.46209       	63.256527      	63.367493      	63.058975      	63.180984      	63.111332      	63.7852        	63.072662      	63.05667       	63.474785      	63.012306      	63.115166      	63.375862      	63.207954      	62.97655       	63.46132       	63.184467      	63.19757       	63.566357      	63.522373      	63.479107      	63.527805      	63.25132       	63.336353      	63.23429       	63.061764      	63.43031       	63.251865      	63.484024      	62.980892      	63.21866       	63.419273      	63.047894      	63.417847      	63.002716      	63.089252      	63.334297      	63.06637       	63.278824      	62.97319       	63.077957      	62.999786      	62.947407      	63.345543      	62.97592       	63.794933      	63.324776      	64.8345        	61.11551       	59.12058       	60.801254      	58.63366       	57.418034      	58.2616        	56.7396        	55.907772      	56.14297       	55.459835      	55.660164      	57.619186      	63.23135       	63.930622      	63.55123       	63.775265      	63.647457      	64.01513       	63.684406      	63.76461       	63.99603       	63.786724      	63.74142       	63.728703      	63.851746      	64.05124       	63.418224      	63.67936       	63.633987      	63.912804      	64.186745      	64.004684      	65.664345      	66.58975       	
62.281708      	62.8857        	62.716408      	62.882797      	62.747944      	62.983707      	62.922287      	63.05887       	62.752205      	62.61673       	62.624252      	63.17754       	62.759277      	63.130463      	62.839043      	63.137833      	63.284         	63.202885      	62.986423      	63.063114      	63.452274      	63.109722      	62.83947       	62.74471       	63.276703      	62.978695      	63.22946       	63.089245      	63.244644      	62.913715      	62.67805       	63.278522      	62.959         	63.315235      	63.115242      	63.006313      	63.50806       	63.285946      	62.62591       	63.614574      	62.74444       	63.151493      	62.865685      	62.96014       	63.129333      	63.329136      	63.22545       	62.82632       	63.402813      	63.640224      	63.28087       	62.60379       	62.935837      	63.33943       	62.289467      	62.579346      	62.787205      	62.699146      	63.610317      	63.396317      	63.116196      	62.228367      	64.66834       	61.121693      	60.49913       	58.66647       	57.07529       	56.637424      	56.694504      	55.77709       	56.249836      	56.019657      	55.77644       	56.237755      	54.706814      	55.18241       	55.200226      	54.36868       	61.384953      	63.546898      	62.88257       	63.05912       	63.36687       	63.60551       	63.117798      	63.347557      	63.76938       	63.53534       	63.030876      	63.287388      	63.39053       	63.528996      	63.020233      	63.55349       	64.21806       	63.86908       	63.350994      	63.859497      	65.262085      	66.19269       	
62.171505      	62.61305       	62.726387      	62.667908      	62.82605       	62.987995      	63.01999       	63.01058       	62.789932      	62.788696      	62.870857      	62.304222      	62.793697      	62.590107      	63.26327       	62.95797       	63.646152      	62.65899       	62.98056       	63.075954      	63.056305      	62.843647      	62.81421       	62.931675      	63.160336      	62.648415      	62.55492       	63.076107      	62.8781        	62.673378      	62.790413      	62.84674       	62.78693       	63.506916      	63.334915      	62.68431       	62.615425      	63.237873      	63.22111       	63.02922       	62.684196      	62.84517       	62.570953      	62.5671        	62.630424      	62.558628      	62.628475      	62.523575      	62.581654      	62.965332      	63.485306      	62.388287      	62.49178       	61.952442      	63.286594      	63.007713      	64.60506       	63.676414      	63.467552      	59.82397       	58.204556      	59.246117      	57.67921       	57.009056      	56.153282      	55.992546      	55.991726      	55.68372       	56.48049       	56.256733      	56.08536       	56.208294      	55.843662      	56.514706      	55.759605      	56.00713       	55.94386       	56.040157      	60.176098      	63.07263       	63.122303      	63.155575      	63.241024      	63.499485      	63.36897       	63.057896      	63.417294      	63.846657      	63.582058      	63.2604        	63.1402        	63.29262       	63.240124      	63.283363      	63.12956       	63.321568      	63.390827      	63.53375       	64.13872       	64.69033       	
62.31601       	62.826546      	62.965572      	63.016182      	62.76151       	63.139538      	63.301968      	63.098343      	62.88977       	63.250095      	62.80151       	62.94043       	63.685524      	62.96763       	63.268387      	63.16581       	62.61106       	63.60835       	63.14487       	62.97096       	63.235256      	62.92918       	62.7           	63.287193      	62.86193       	63.163097      	62.857452      	63.572193      	62.938797      	63.94769       	63.032963      	63.17687       	63.126396      	63.31691       	62.66207       	62.2131        	63.51345       	63.437237      	63.674713      	63.13849       	63.12187       	63.23704       	63.235035      	63.43749       	62.57624       	63.170567      	62.886333      	62.178387      	62.506016      	63.319546      	62.77151       	62.449875      	64.60139       	62.640484      	60.229885      	60.906563      	58.378895      	56.65408       	57.443787      	56.946514      	56.123325      	56.39841       	55.936592      	56.134003      	56.41854       	56.043163      	56.326126      	56.271908      	56.52974       	56.437336      	56.58732       	56.556904      	56.610584      	56.616997      	56.693684      	55.64812       	56.94467       	56.398636      	58.381         	62.271923      	63.326733      	63.367077      	64.010735      	63.427444      	63.732998      	63.578083      	64.25021       	64.05839       	64.08037       	63.58854       	63.652836      	63.14933       	64.002014      	63.908566      	63.63247       	64.08331       	64.06599       	64.31953       	64.23261       	64.37675       	
63.418015      	63.11421       	63.26541       	62.89432       	63.04691       	62.74402       	63.295647      	63.100933      	63.41181       	63.09508       	63.071102      	63.110237      	63.12255       	63.16667       	63.01262       	63.473164      	63.445026      	63.25492       	62.932507      	62.900154      	62.574455      	63.55775       	63.21805       	63.16068       	63.307716      	63.30748       	63.44403       	63.379986      	63.356407      	63.60867       	63.313282      	63.369663      	63.4344        	63.27255       	63.628284      	63.267532      	63.479057      	63.35487       	63.602207      	63.80039       	63.719864      	63.521656      	63.347683      	63.08422       	63.307735      	63.800766      	63.64957       	63.349987      	64.72038       	63.83446       	62.786938      	60.358906      	58.391357      	57.494644      	56.783714      	56.81025       	56.27366       	55.800186      	56.03102       	56.270832      	56.431908      	56.360626      	56.27596       	56.408264      	56.580544      	56.50985       	56.235867      	56.482674      	56.49742       	56.948162      	57.06147       	56.420193      	58.10467       	56.452328      	56.289505      	55.988857      	56.272537      	58.22823       	57.796745      	61.333046      	63.01125       	62.91619       	62.984035      	63.45294       	62.964153      	62.785175      	63.35018       	62.926624      	63.48045       	63.33664       	63.662415      	63.622612      	63.543835      	63.793976      	63.239994      	63.50742       	63.786156      	64.75665       	64.216095      	62.835373      	
62.63262       	63.04816       	62.999325      	62.75973       	62.73532       	62.542076      	62.35867       	62.73355       	62.798904      	63.114468      	62.87587       	62.442818      	62.54943       	62.605606      	62.69613       	62.947327      	62.87669       	62.40563       	62.27164       	62.385036      	62.11502       	63.098267      	62.84659       	63.092617      	63.07212       	62.886528      	62.872963      	63.217888      	63.14643       	62.89018       	62.907986      	62.819862      	62.59148       	63.169743      	62.994698      	62.745438      	62.79486       	62.76581       	62.717705      	62.891674      	62.72545       	64.15552       	62.68976       	62.22061       	64.588684      	63.078323      	59.26631       	57.604523      	58.453617      	57.419273      	57.053047      	56.29298       	55.896458      	55.744682      	56.07934       	56.042393      	55.491417      	56.29666       	55.99422       	56.266384      	56.02569       	56.321625      	56.08772       	56.826378      	55.956642      	57.631527      	56.446854      	56.36557       	56.77196       	56.459343      	56.490696      	58.206436      	56.613327      	56.03279       	56.193336      	55.94837       	55.697067      	55.891853      	57.045574      	59.425915      	62.54757       	62.375282      	62.550804      	63.06776       	61.854855      	63.476856      	63.222927      	63.53906       	62.89666       	63.14026       	63.00219       	62.612457      	63.315735      	63.976753      	63.372517      	63.439644      	63.521484      	63.82601       	63.690044      	63.77901       	
62.77377       	62.47556       	63.063114      	62.638756      	62.746124      	62.742027      	63.058155      	62.827995      	62.89648       	62.714706      	63.05529       	62.743732      	62.59353       	62.622147      	62.90777       	63.15584       	63.022663      	62.97912       	62.91056       	62.691494      	63.54323       	62.768677      	62.746387      	62.86013       	62.915886      	63.066483      	62.570934      	63.14511       	62.653656      	63.154675      	63.21978       	63.103416      	62.53465       	62.78718       	63.1746        	63.361237      	62.714848      	62.80893       	62.766094      	62.856632      	62.581383      	64.57422       	61.34676       	58.79042       	58.00948       	57.444588      	56.14039       	56.05951       	55.877197      	56.01741       	56.344894      	56.778503      	56.17823       	56.027344      	56.46584       	56.2692        	56.50172       	56.6246        	56.342846      	56.64939       	56.33585       	56.57177       	56.452213      	56.489002      	56.74531       	56.539707      	56.90275       	57.119144      	56.663216      	56.88398       	56.84336       	57.279575      	56.228905      	56.674397      	56.971664      	56.172016      	56.694435      	55.83294       	56.05021       	59.306988      	63.1254        	63.755863      	63.186783      	63.26368       	63.800144      	63.359695      	63.356407      	63.37675       	63.680645      	63.098747      	63.71743       	63.542553      	63.624847      	63.83164       	63.818314      	63.69969       	64.252396      	63.851288      	64.476364      	63.933247      	
62.666866      	63.021957      	62.90576       	62.72619       	62.487076      	62.91306       	62.728554      	62.92565       	62.84034       	62.784298      	62.639523      	62.80135       	62.965595      	62.79408       	62.975296      	62.679626      	62.716583      	62.72626       	62.695198      	62.822025      	62.422237      	62.909         	62.733055      	62.979904      	62.99589       	63.035946      	62.982037      	62.990223      	62.725903      	62.99203       	62.550728      	63.504948      	62.69254       	63.07726       	62.822124      	63.086395      	62.82827       	63.16738       	63.36001       	63.848427      	63.832935      	60.354874      	56.973835      	55.363064      	55.000732      	55.43887       	55.522015      	55.912983      	55.99369       	56.046444      	56.10052       	55.99329       	56.14814       	56.169388      	56.02501       	56.213337      	56.091507      	56.219376      	56.38146       	56.605312      	56.325024      	56.45043       	56.57622       	56.60526       	56.191628      	56.325397      	56.227074      	56.492413      	57.11378       	56.736404      	56.84247       	56.356598      	55.935307      	56.899414      	56.70841       	56.606068      	56.454933      	56.267242      	55.88131       	59.021442      	62.56691       	62.96349       	62.97011       	63.104527      	63.71005       	63.354675      	63.601692      	63.251507      	63.23252       	63.544086      	63.436577      	63.31442       	63.386787      	63.767826      	63.89275       	63.845184      	63.83406       	64.34579       	64.53737       	63.773853      	
62.917118      	63.107346      	62.965847      	62.70659       	63.889954      	63.25197       	63.17546       	63.03307       	62.97478       	63.08052       	62.56956       	63.278374      	62.932194      	63.6098        	63.810925      	62.73389       	64.7789        	63.475903      	62.505898      	63.040527      	63.04136       	63.095787      	63.538055      	63.321274      	63.0944        	63.10411       	63.480526      	63.657616      	63.277454      	63.430656      	63.598827      	63.39327       	63.8299        	63.511497      	63.02195       	63.298428      	63.638226      	63.38253       	63.022682      	65.28646       	60.774662      	58.169937      	56.351025      	55.37518       	56.50376       	55.873528      	56.57166       	56.38974       	56.157364      	56.63922       	56.480495      	56.664032      	56.983612      	56.8916        	56.53482       	56.227463      	56.75491       	57.120453      	57.52198       	56.63046       	57.41399       	56.7284        	56.507153      	56.927723      	56.9723        	56.842392      	56.837807      	57.040234      	55.910805      	57.01417       	56.787674      	57.32376       	56.587383      	56.79289       	56.981155      	56.329082      	56.59628       	57.233395      	56.961353      	59.16514       	62.96813       	63.161697      	63.25892       	63.396454      	63.310646      	63.698597      	63.747814      	63.792973      	63.379623      	63.840847      	63.504505      	63.71526       	63.556446      	63.6164        	63.797516      	64.16666       	64.258934      	65.10506       	65.10776       	64.3405        	
62.54519       	62.438343      	62.663883      	62.638386      	62.75071       	62.503048      	62.91602       	62.517567      	63.17759       	62.573475      	62.55226       	63.46326       	62.87728       	63.867935      	63.10902       	65.89918       	63.86157       	61.795662      	63.233334      	63.8154        	63.286926      	63.188747      	62.25137       	63.30994       	62.67567       	62.24216       	62.909367      	62.83069       	62.57908       	62.940533      	62.33209       	63.309555      	62.995106      	62.699177      	62.826504      	63.384216      	62.483273      	62.52249       	61.71135       	65.1827        	60.19166       	58.31252       	56.80199       	55.592434      	55.480236      	55.92847       	55.949516      	56.474236      	56.397263      	56.295765      	55.921177      	56.364563      	56.38668       	56.013035      	56.86173       	56.29854       	56.266396      	56.61332       	56.66223       	56.37155       	56.33446       	56.44913       	56.313107      	56.92079       	56.461823      	56.753986      	56.70807       	56.74583       	56.843563      	56.803703      	56.372143      	56.705036      	56.56403       	56.78908       	56.66817       	56.248196      	55.444397      	56.339516      	56.69026       	57.166122      	61.40409       	63.204704      	63.228577      	63.33963       	63.459446      	63.460045      	63.187088      	63.681206      	63.60371       	63.78121       	63.705364      	63.733597      	64.4898        	63.84517       	65.11299       	64.4931        	64.50959       	63.723267      	63.718697      	63.541203      	
62.80899       	62.892975      	62.93357       	62.9785        	62.81719       	63.019695      	62.651417      	62.971687      	62.67942       	62.71282       	62.763428      	62.67134       	62.761074      	62.697968      	62.852985      	62.85989       	63.03202       	62.75399       	62.803898      	62.859173      	62.98507       	63.265682      	62.837933      	62.542545      	63.273228      	62.55995       	62.523495      	62.728745      	62.7087        	63.187233      	62.780106      	62.562572      	62.883675      	62.764603      	62.613094      	62.81845       	62.826748      	62.714428      	62.550564      	65.00602       	61.89278       	59.074265      	57.76057       	57.036564      	55.920998      	56.200493      	56.216053      	56.58664       	56.496452      	56.961655      	56.72257       	57.032806      	57.690254      	57.81037       	57.23533       	56.452118      	55.32804       	56.533466      	56.69995       	56.74718       	56.437874      	56.95822       	56.70669       	56.336494      	57.317635      	56.988586      	56.32325       	56.305748      	56.40925       	56.940777      	56.42169       	56.703278      	56.723454      	56.49425       	56.793583      	56.1952        	56.182457      	55.330654      	56.162937      	56.10931       	59.977585      	63.251053      	63.046127      	62.7008        	62.97385       	62.86716       	62.92008       	63.260025      	63.561222      	62.862736      	63.229492      	63.170254      	63.546005      	63.44721       	63.52185       	63.23197       	63.633476      	64.28756       	63.850986      	63.31785       	
62.62323       	62.667427      	62.601227      	63.117645      	63.149338      	62.754673      	62.84147       	63.220036      	63.0228        	62.567524      	63.046963      	62.66743       	62.83025       	62.659393      	62.96918       	63.20641       	63.1347        	62.916447      	63.05189       	63.003548      	63.083755      	63.27711       	63.086876      	63.36858       	63.17769       	62.86277       	63.311466      	62.72227       	63.51631       	62.832115      	63.29703       	62.911648      	63.843807      	63.196613      	63.31177       	63.136337      	63.136864      	63.486584      	63.36226       	64.03101       	64.78954       	61.494873      	58.929634      	58.172916      	56.230377      	56.285294      	56.14817       	56.55076       	56.730064      	56.581383      	56.650204      	57.08162       	56.697163      	56.510223      	56.73267       	56.519203      	56.97411       	56.33622       	56.606415      	56.55395       	56.6974        	56.61414       	56.4381        	57.15023       	57.144623      	56.841503      	55.61932       	56.93635       	57.017742      	56.462936      	57.15808       	57.01766       	56.855133      	56.429142      	56.510727      	56.437416      	56.208214      	56.07165       	55.890842      	55.53073       	58.419605      	62.440815      	62.685337      	63.232094      	63.10092       	63.001434      	63.149742      	63.600414      	64.47262       	63.219288      	62.958675      	63.51486       	63.366627      	63.33542       	63.493137      	63.297527      	63.060078      	63.93731       	64.259834      	63.49678       	
62.94365       	63.046013      	63.07607       	62.77537       	63.219444      	62.853386      	62.697624      	62.72805       	62.687973      	62.722183      	63.119137      	62.785664      	62.965755      	62.88176       	63.105705      	63.18621       	63.0283        	63.01593       	62.92799       	62.52373       	62.724995      	64.28634       	62.697124      	63.13553       	62.92193       	62.60015       	62.92954       	62.551075      	63.70124       	62.831276      	62.91812       	62.500816      	62.918083      	62.879944      	63.22967       	62.842106      	62.859966      	63.27757       	62.77864       	63.228027      	64.86591       	60.61312       	59.273373      	57.678356      	57.31577       	56.100033      	56.697975      	56.791344      	56.83845       	56.72107       	57.23232       	57.02881       	56.81673       	56.715313      	56.973644      	56.381832      	56.91685       	57.78032       	56.66037       	56.89495       	56.83285       	56.29678       	56.99225       	56.306427      	56.978973      	56.721703      	56.83247       	56.859047      	57.024384      	56.753765      	57.09876       	57.195137      	56.778614      	56.78328       	57.05282       	56.496567      	56.38621       	56.171036      	55.941105      	55.634693      	57.141544      	61.487278      	62.50001       	63.30501       	63.119213      	63.133648      	63.440823      	63.365055      	63.08753       	63.527737      	63.52252       	63.25535       	63.40294       	63.394302      	63.57667       	63.53619       	63.29318       	64.114525      	64.782555      	64.322754      	
