# www.neaspec.com
# Scan:	 	AFM
# Project:	 	20251007_PS
# Description:	 	
# Date:	 	10/07/2025 13:24:33
# Scanner Center Position (X, Y):	[µm]	49.99	50.01	 
# Rotation:	[°]	0	 	 
# Scan Area (X, Y, Z):	[µm]	5.000	5.000	0.000
# Pixel Area (X, Y, Z):	[px]	100	100	1
# Averaging:	 	1	 	 
# Integration time:	[ms]	5	 	 
# Laser Source:	 	4.5-15 µm nano-FTIR laser
# Detector:	 	R
# Target Wavelength:	[µm]	7.502	 	 
# Demodulation Mode:	 	Fourier
# Tip Frequency:	[Hz]	241,340.500	 	 
# Tip Amplitude:	[mV]	45.700	 	 
# Tapping Amplitude:	[nm]	76.314	 	 
# Modulation Frequency:	[Hz]	0.000	 	 
# Modulation Amplitude:	[mV]	0.000	 	 
# Modulation Offset:	[mV]	0.000	 	 
# Setpoint:	[%]	79.75	 	 
# Regulator (P, I, D):	 	4.206850	8.625812	1.000000
# Tip Potential:	[mV]	0.000	 	 
# M1A Scaling:	[nm/V]	0.426	 	 
# M1A Cantilever Factor:	 	1,000	 	 
# Q-Factor:	 	487.4	 	 
# Version:	 	2.1.11536.0
1101.6641      	1101.6903      	1101.7203      	1101.6897      	1101.7338      	1101.7225      	1101.7192      	1101.573       	1100.8729      	1101.6064      	1101.6833      	1101.6589      	1101.606       	1101.6067      	1101.647       	1101.6115      	1101.614       	1101.6075      	1101.5845      	1101.6132      	1101.6147      	1101.5941      	1101.6008      	1101.6066      	1101.5302      	1101.3904      	1101.6195      	1101.6362      	1101.6317      	1101.618       	1101.6295      	1101.648       	1101.6278      	1101.6348      	1101.6895      	1101.6213      	1101.6173      	1101.6329      	1101.6008      	1101.6493      	1101.4817      	1101.6799      	1101.6357      	1101.6216      	1101.6108      	1101.6165      	1101.6438      	1101.5685      	1101.5182      	1101.5737      	1101.573       	1101.52        	1101.5092      	1101.6035      	1101.7882      	1101.8705      	1101.5314      	1101.5126      	1101.5167      	1101.507       	1101.4604      	1101.4795      	1101.4353      	1101.4407      	1101.4651      	1101.454       	1101.4597      	1101.4418      	1101.4348      	1101.4524      	1101.4485      	1101.44        	1101.3597      	1101.4331      	1101.382       	1101.3628      	1101.4171      	1101.4244      	1101.4406      	1101.4247      	1101.4088      	1101.4286      	1101.4103      	1101.4172      	1101.438       	1101.4291      	1101.4579      	1101.4343      	1101.437       	1101.4857      	1101.4617      	1101.4913      	1101.5098      	1101.513       	1101.517       	1101.5103      	1101.5575      	1101.5404      	1101.5369      	1101.5322      	
1102.0125      	1101.958       	1101.9423      	1101.9192      	1101.9734      	1101.9407      	1101.9878      	1101.9219      	1101.0968      	1101.7329      	1101.9716      	1101.9169      	1101.9308      	1101.9283      	1101.8898      	1101.8805      	1101.8893      	1101.8561      	1101.8647      	1101.8156      	1101.8425      	1101.8339      	1101.8456      	1101.8373      	1101.8547      	1101.8342      	1101.8268      	1101.8337      	1101.8309      	1101.8387      	1101.8962      	1101.882       	1101.866       	1101.8345      	1101.8439      	1101.8387      	1101.7986      	1101.8341      	1101.8159      	1101.7655      	1101.841       	1101.7587      	1101.8544      	1101.7678      	1101.8217      	1101.745       	1101.696       	1101.8982      	1101.7476      	1101.7976      	1101.7863      	1101.8279      	1101.7141      	1101.7458      	1101.9122      	1102.0671      	1101.7167      	1101.7292      	1101.689       	1101.6714      	1101.685       	1101.6694      	1101.6605      	1101.6412      	1101.6288      	1101.6685      	1101.6232      	1101.6056      	1101.5918      	1101.5763      	1101.5682      	1101.577       	1101.5906      	1101.5737      	1101.5712      	1101.5878      	1101.5583      	1101.5867      	1101.5374      	1101.6105      	1101.5715      	1101.554       	1101.5396      	1101.5275      	1101.5653      	1101.5872      	1101.5536      	1101.6002      	1101.5718      	1101.5762      	1101.6249      	1101.6228      	1101.608       	1101.6138      	1101.6407      	1101.6294      	1101.6431      	1101.6622      	1101.6653      	1101.6523      	
1102.0725      	1102.1211      	1102.122       	1102.0955      	1102.1083      	1102.1309      	1102.1252      	1102.1538      	1101.263       	1101.7705      	1102.072       	1102.0646      	1102.0468      	1102.0417      	1101.9833      	1102.0491      	1102.0233      	1102.0247      	1102.0178      	1102.0286      	1102.0332      	1102.0142      	1102.0168      	1102.0011      	1102.0813      	1102.013       	1102.0375      	1102.0629      	1102.0409      	1102.0444      	1102.0975      	1102.0925      	1102.0837      	1102.1152      	1102.066       	1102.1044      	1102.0594      	1102.0914      	1102.0665      	1102.095       	1102.0653      	1102.1049      	1102.0778      	1102.1562      	1102.0708      	1102.1682      	1102.096       	1102.1357      	1102.1145      	1102.0326      	1102.0353      	1102.156       	1102.0736      	1102.0828      	1102.1726      	1102.2905      	1102.0914      	1101.98        	1102.0112      	1101.9686      	1101.9895      	1101.9412      	1101.9504      	1101.9357      	1101.988       	1101.9152      	1101.9376      	1101.922       	1101.9585      	1101.8872      	1101.9089      	1101.9459      	1101.9003      	1101.921       	1101.9127      	1101.907       	1101.9264      	1101.881       	1101.8751      	1101.9587      	1101.9635      	1101.907       	1101.971       	1101.9723      	1101.9421      	1101.8907      	1101.9874      	1101.965       	1101.989       	1102.0017      	1102.0383      	1102.0188      	1102.0128      	1102.045       	1102.0686      	1102.0642      	1102.0552      	1102.0594      	1102.0576      	1102.0981      	
1102.0956      	1102.0266      	1102.0851      	1102.0404      	1102.0509      	1102.079       	1102.0366      	1102.1731      	1101.5135      	1101.4213      	1101.9221      	1102.0358      	1102.0162      	1101.9888      	1101.9995      	1101.9636      	1101.9823      	1101.9965      	1101.9757      	1101.9886      	1102.0088      	1101.9731      	1101.9763      	1101.9675      	1101.9928      	1102.0112      	1102.0975      	1102.0321      	1102.0447      	1102.103       	1102.0647      	1102.063       	1102.0746      	1102.0917      	1102.0969      	1102.0552      	1102.0261      	1102.0315      	1102.0537      	1102.0359      	1101.9667      	1102.0057      	1102.4036      	1102.0806      	1102.0305      	1102.046       	1102.0739      	1102.0343      	1102.0125      	1101.9751      	1102.2043      	1101.9376      	1101.9823      	1102.078       	1102.1084      	1102.1732      	1101.9724      	1101.9825      	1101.9714      	1101.9692      	1101.969       	1101.9586      	1101.9406      	1101.9553      	1101.9204      	1101.9414      	1101.9423      	1101.9376      	1101.9364      	1101.9601      	1101.947       	1101.9462      	1101.922       	1101.9338      	1101.9589      	1101.9362      	1101.947       	1101.9376      	1101.9569      	1101.9208      	1101.9606      	1102.0204      	1101.9246      	1101.9907      	1102.0139      	1101.9816      	1102.0702      	1101.9918      	1102.0907      	1102.0334      	1102.0554      	1102.0684      	1102.0721      	1102.1066      	1102.0773      	1102.0819      	1102.0837      	1102.0922      	1102.1106      	1102.1147      	
1102.1577      	1102.2037      	1102.0991      	1102.1338      	1102.164       	1102.0881      	1102.1271      	1102.1763      	1101.9497      	1101.3179      	1102.0281      	1102.1019      	1102.0825      	1102.0721      	1102.0841      	1102.09        	1102.0627      	1102.0991      	1102.1041      	1102.0828      	1102.1437      	1102.112       	1102.0858      	1102.1448      	1102.1272      	1102.1852      	1102.1832      	1102.1975      	1102.218       	1102.197       	1102.1891      	1102.1614      	1102.1571      	1102.2019      	1102.1555      	1102.1571      	1102.1642      	1102.1309      	1102.1747      	1102.1548      	1102.1222      	1101.9333      	1101.905       	1102.1716      	1102.0981      	1102.1866      	1102.255       	1102.0979      	1102.0278      	1102.0823      	1102.0579      	1102.2333      	1102.1425      	1102.0826      	1102.0347      	1102.0454      	1102.085       	1102.0555      	1102.0613      	1102.0552      	1102.0675      	1102.0437      	1102.048       	1102.0386      	1102.0125      	1102.0835      	1102.0444      	1102.0806      	1102.0573      	1102.088       	1102.0454      	1102.0469      	1102.0359      	1102.0704      	1102.0603      	1102.0614      	1102.0591      	1102.0669      	1102.0813      	1102.1128      	1102.0663      	1102.0776      	1102.1333      	1102.1345      	1102.1189      	1102.1008      	1102.1508      	1102.1638      	1102.136       	1102.1316      	1102.1365      	1102.2167      	1102.158       	1102.1389      	1102.1693      	1102.1954      	1102.1832      	1102.1749      	1102.1704      	1102.1643      	
1102.0519      	1102.0739      	1102.0475      	1102.0646      	1102.037       	1102.0579      	1102.0139      	1102.0198      	1102.0671      	1101.1405      	1101.7085      	1101.9908      	1102.0085      	1101.9739      	1101.9724      	1101.9066      	1101.974       	1101.9788      	1101.9647      	1101.9478      	1101.9735      	1101.9169      	1101.9415      	1101.959       	1102.0006      	1101.9847      	1101.9753      	1101.9556      	1101.9955      	1101.9655      	1102.0347      	1101.9996      	1101.9949      	1102.004       	1101.97        	1102.0128      	1101.9729      	1101.8771      	1101.9442      	1101.6115      	1101.8712      	1102.1138      	1102.1165      	1102.0508      	1101.9279      	1101.9104      	1102.1349      	1102.1315      	1101.9387      	1102.0132      	1102.0288      	1101.9575      	1101.9697      	1101.9692      	1102.0055      	1101.9637      	1101.9474      	1101.9591      	1101.9366      	1101.989       	1101.9573      	1101.9568      	1101.9493      	1101.9524      	1101.9491      	1101.9434      	1101.9578      	1101.9893      	1101.9231      	1101.9542      	1102.001       	1101.9816      	1101.9172      	1101.9447      	1102.0099      	1101.9868      	1101.9528      	1102.0245      	1101.9935      	1101.9924      	1102.0082      	1102.0273      	1102.0121      	1102.046       	1102.0186      	1102.0905      	1102.1204      	1102.0466      	1102.0956      	1102.127       	1102.1036      	1102.0989      	1102.1573      	1102.1403      	1102.1466      	1102.1503      	1102.1561      	1102.1927      	1102.2023      	1102.199       	
1102.1417      	1102.1323      	1102.1215      	1102.1521      	1102.1393      	1102.1333      	1102.1133      	1102.109       	1102.1836      	1101.4933      	1101.5468      	1102.0022      	1101.9972      	1102.0295      	1102.0325      	1102.058       	1102.0134      	1102.0109      	1102.0316      	1102.049       	1101.9923      	1102.0718      	1102.038       	1102.0162      	1102.0623      	1102.0403      	1102.093       	1102.0565      	1102.0679      	1102.0515      	1102.0487      	1101.9602      	1101.9191      	1101.9103      	1102.0182      	1101.8324      	1101.7847      	1102.1873      	1102.1925      	1102.0541      	1102.1493      	1102.1945      	1102.1112      	1102.101       	1102.0497      	1102.0887      	1102.02        	1102.0751      	1102.0233      	1102.0571      	1102.034       	1102.0409      	1102.0122      	1102.0347      	1102.0354      	1102.035       	1102.0411      	1102.0657      	1102.0505      	1102.034       	1102.0304      	1102.0262      	1102.0251      	1101.9846      	1102.0038      	1102.0374      	1102.0123      	1102.0052      	1101.9733      	1101.9796      	1101.9877      	1102.0095      	1101.9323      	1101.9833      	1101.9843      	1101.9523      	1101.953       	1101.9862      	1102.0178      	1101.9982      	1101.9722      	1102.0638      	1102.0112      	1102.0897      	1102.0568      	1102.0933      	1102.1482      	1102.1089      	1102.1296      	1102.1135      	1102.17        	1102.1694      	1102.1472      	1102.1506      	1102.1488      	1102.1808      	1102.1979      	1102.1517      	1102.1428      	1102.1389      	
1102.2864      	1102.2692      	1102.2405      	1102.2548      	1102.2544      	1102.2343      	1102.2136      	1102.243       	1102.2684      	1101.9999      	1101.4368      	1102.0951      	1102.1926      	1102.1517      	1102.1436      	1102.1274      	1102.1375      	1102.1365      	1102.158       	1102.1229      	1102.1558      	1102.1577      	1102.1547      	1102.1729      	1102.1984      	1102.1653      	1102.2102      	1102.0962      	1102.0394      	1102.147       	1102.0553      	1102.2997      	1102.3274      	1102.1102      	1102.302       	1102.1766      	1102.2356      	1102.4645      	1102.2876      	1102.1575      	1102.194       	1102.1649      	1102.1545      	1102.1942      	1102.2496      	1102.1758      	1102.1917      	1102.1855      	1102.1621      	1102.178       	1102.1986      	1102.179       	1102.1741      	1102.1687      	1102.1874      	1102.2073      	1102.1522      	1102.1749      	1102.1995      	1102.1582      	1102.1653      	1102.1248      	1102.1525      	1102.1736      	1102.1222      	1102.1493      	1102.1873      	1102.1746      	1102.1785      	1102.1628      	1102.1611      	1102.1671      	1102.1929      	1102.1466      	1102.1732      	1102.1658      	1102.2229      	1102.1962      	1102.1694      	1102.2313      	1102.1954      	1102.2063      	1102.2583      	1102.26        	1102.2549      	1102.2573      	1102.3073      	1102.3033      	1102.3079      	1102.2983      	1102.3387      	1102.3333      	1102.3231      	1102.358       	1102.3821      	1102.3485      	1102.3702      	1102.3817      	1102.3542      	1102.392       	
1102.4888      	1102.504       	1102.5166      	1102.4711      	1102.4718      	1102.4524      	1102.4774      	1102.4695      	1102.438       	1102.3158      	1101.678       	1102.301       	1102.4014      	1102.4045      	1102.4006      	1102.435       	1102.4219      	1102.4197      	1102.4031      	1102.4037      	1102.4431      	1102.376       	1102.4178      	1102.4185      	1102.3202      	1102.2366      	1102.2957      	1102.4125      	1102.6564      	1102.6063      	1102.536       	1102.4337      	1102.4574      	1102.5636      	1102.5815      	1102.4539      	1102.4557      	1102.4484      	1102.4617      	1102.4192      	1102.4495      	1102.4523      	1102.4044      	1102.4575      	1102.4423      	1102.4003      	1102.4065      	1102.393       	1102.4126      	1102.4097      	1102.4016      	1102.4153      	1102.4104      	1102.3792      	1102.4617      	1102.4043      	1102.4277      	1102.4003      	1102.4165      	1102.4067      	1102.4204      	1102.4032      	1102.4451      	1102.4026      	1102.4493      	1102.4205      	1102.4094      	1102.4543      	1102.4393      	1102.4181      	1102.4044      	1102.3885      	1102.4006      	1102.4034      	1102.4495      	1102.4917      	1102.5088      	1102.4504      	1102.5005      	1102.5044      	1102.4569      	1102.493       	1102.4656      	1102.5155      	1102.5138      	1102.4911      	1102.5602      	1102.5396      	1102.5656      	1102.594       	1102.5981      	1102.59        	1102.5461      	1102.5876      	1102.5841      	1102.6155      	1102.5797      	1102.5803      	1102.5674      	1102.5616      	
1102.5168      	1102.5186      	1102.464       	1102.4268      	1102.446       	1102.4507      	1102.4045      	1102.4387      	1102.4103      	1102.446       	1102.2567      	1102.214       	1102.3794      	1102.33        	1102.3711      	1102.3385      	1102.3738      	1102.373       	1102.3645      	1102.1417      	1102.296       	1102.439       	1102.418       	1102.4631      	1102.4564      	1102.4187      	1102.5262      	1102.4349      	1102.562       	1102.6985      	1102.5269      	1102.4597      	1102.482       	1102.4468      	1102.454       	1102.4484      	1102.4791      	1102.4539      	1102.3918      	1102.431       	1102.4553      	1102.3842      	1102.4667      	1102.401       	1102.4272      	1102.4258      	1102.3997      	1102.4395      	1102.4227      	1102.449       	1102.4868      	1102.3976      	1102.4332      	1102.4305      	1102.4493      	1102.4612      	1102.4946      	1102.4471      	1102.4674      	1102.4336      	1102.4661      	1102.4382      	1102.4694      	1102.4438      	1102.4915      	1102.4963      	1102.4358      	1102.4384      	1102.4712      	1102.4861      	1102.4684      	1102.5044      	1102.4818      	1102.5067      	1102.4866      	1102.55        	1102.5415      	1102.5101      	1102.5209      	1102.5337      	1102.5894      	1102.5814      	1102.5842      	1102.5928      	1102.647       	1102.5933      	1102.6371      	1102.5939      	1102.6094      	1102.646       	1102.6802      	1102.6576      	1102.6472      	1102.6287      	1102.6685      	1102.6335      	1102.6782      	1102.6501      	1102.6309      	1102.6306      	
1102.262       	1102.2615      	1102.2603      	1102.2462      	1102.2161      	1102.2208      	1102.2604      	1102.2532      	1102.2981      	1102.2466      	1102.2837      	1101.9421      	1102.1558      	1102.2019      	1102.1959      	1102.228       	1102.0936      	1101.969       	1102.0951      	1101.9236      	1102.091       	1102.2134      	1102.3036      	1102.1128      	1102.2056      	1102.2327      	1102.3074      	1102.4618      	1102.2406      	1102.2931      	1102.2361      	1102.2498      	1102.2299      	1102.3137      	1102.1892      	1102.2151      	1102.3242      	1102.2708      	1102.2491      	1102.2616      	1102.2422      	1102.2657      	1102.2863      	1102.2405      	1102.2649      	1102.2198      	1102.2539      	1102.2616      	1102.3162      	1102.3196      	1102.3394      	1102.275       	1102.3046      	1102.2821      	1102.286       	1102.354       	1102.3551      	1102.3387      	1102.3313      	1102.3313      	1102.4032      	1102.3508      	1102.337       	1102.3608      	1102.3762      	1102.372       	1102.3514      	1102.348       	1102.3234      	1102.3336      	1102.3528      	1102.3793      	1102.3356      	1102.4159      	1102.4028      	1102.4478      	1102.382       	1102.4224      	1102.3995      	1102.4452      	1102.4454      	1102.4823      	1102.4364      	1102.5221      	1102.4972      	1102.4888      	1102.5574      	1102.5203      	1102.5347      	1102.5844      	1102.5635      	1102.5809      	1102.5955      	1102.6495      	1102.5847      	1102.5447      	1102.5928      	1102.6178      	1102.6144      	1102.575       	
1102.3971      	1102.3679      	1102.3462      	1102.3302      	1102.3468      	1102.3286      	1102.315       	1102.2958      	1102.3071      	1102.2563      	1102.26        	1102.2944      	1102.2612      	1102.2166      	1102.262       	1102.2507      	1102.2538      	1102.2478      	1102.2423      	1102.2771      	1102.2675      	1102.2412      	1102.2704      	1102.2787      	1102.2318      	1102.2991      	1102.3136      	1102.2498      	1102.254       	1102.2639      	1102.2776      	1102.2812      	1102.2616      	1102.263       	1102.2694      	1102.2456      	1102.217       	1102.2548      	1102.2472      	1102.2865      	1102.2108      	1102.2311      	1102.255       	1102.2087      	1102.2692      	1102.217       	1102.297       	1102.2074      	1102.2771      	1102.2656      	1102.2655      	1102.2573      	1102.2856      	1102.2915      	1102.2976      	1102.3198      	1102.342       	1102.3649      	1102.3208      	1102.3163      	1102.3347      	1102.3374      	1102.3169      	1102.3279      	1102.4056      	1102.3513      	1102.3704      	1102.351       	1102.446       	1102.3931      	1102.3684      	1102.4279      	1102.3728      	1102.4073      	1102.3779      	1102.4182      	1102.4067      	1102.4248      	1102.3944      	1102.4341      	1102.4729      	1102.4685      	1102.4868      	1102.4939      	1102.5123      	1102.513       	1102.5326      	1102.5236      	1102.556       	1102.5461      	1102.5112      	1102.5194      	1102.5536      	1102.5184      	1102.5253      	1102.5242      	1102.4958      	1102.5337      	1102.546       	1102.5275      	
1102.4591      	1102.3995      	1102.4305      	1102.4185      	1102.4287      	1102.4397      	1102.3429      	1102.364       	1102.3351      	1102.4069      	1102.3386      	1102.413       	1102.4177      	1102.343       	1102.3899      	1102.3835      	1102.343       	1102.3468      	1102.3549      	1102.3657      	1102.3625      	1102.3405      	1102.372       	1102.397       	1102.3558      	1102.4221      	1102.4397      	1102.3907      	1102.4165      	1102.4742      	1102.4738      	1102.4017      	1102.4163      	1102.403       	1102.4124      	1102.4185      	1102.4103      	1102.3394      	1102.3655      	1102.3735      	1102.3611      	1102.3867      	1102.3718      	1102.3624      	1102.3403      	1102.3489      	1102.3953      	1102.3782      	1102.4122      	1102.381       	1102.3815      	1102.3845      	1102.4023      	1102.4108      	1102.4689      	1102.4386      	1102.438       	1102.438       	1102.4224      	1102.4592      	1102.465       	1102.4553      	1102.4604      	1102.4073      	1102.4647      	1102.4576      	1102.4888      	1102.465       	1102.4883      	1102.4745      	1102.481       	1102.4478      	1102.4906      	1102.5155      	1102.4777      	1102.5194      	1102.5062      	1102.5159      	1102.5353      	1102.5109      	1102.5428      	1102.5461      	1102.5287      	1102.5643      	1102.5289      	1102.5496      	1102.544       	1102.6023      	1102.566       	1102.553       	1102.6282      	1102.5852      	1102.5837      	1102.6212      	1102.6389      	1102.5496      	1102.5707      	1102.6111      	1102.6075      	1102.5181      	
1102.52        	1102.5168      	1102.5417      	1102.5087      	1102.481       	1102.4768      	1102.5165      	1102.4783      	1102.4646      	1102.4641      	1102.4683      	1102.4741      	1102.449       	1102.4407      	1102.4646      	1102.4609      	1102.4945      	1102.5266      	1102.4878      	1102.47        	1102.5388      	1102.4852      	1102.499       	1102.4501      	1102.4745      	1102.5409      	1102.5         	1102.5293      	1102.5203      	1102.5072      	1102.5037      	1102.5297      	1102.4894      	1102.4902      	1102.4811      	1102.4901      	1102.441       	1102.4407      	1102.4653      	1102.4875      	1102.4825      	1102.4225      	1102.4406      	1102.4745      	1102.436       	1102.4695      	1102.4479      	1102.4633      	1102.4767      	1102.5282      	1102.5302      	1102.5349      	1102.5157      	1102.5083      	1102.5493      	1102.5408      	1102.5272      	1102.5873      	1102.578       	1102.5902      	1102.6263      	1102.5702      	1102.5347      	1102.5522      	1102.564       	1102.5715      	1102.6017      	1102.5868      	1102.5913      	1102.5466      	1102.5398      	1102.5823      	1102.6127      	1102.5951      	1102.5858      	1102.6179      	1102.62        	1102.6035      	1102.6492      	1102.6583      	1102.6106      	1102.7059      	1102.7023      	1102.6724      	1102.6737      	1102.6866      	1102.682       	1102.6646      	1102.6884      	1102.7096      	1102.7175      	1102.7046      	1102.6947      	1102.6163      	1102.6531      	1102.6335      	1102.6301      	1102.6456      	1102.6365      	1102.5875      	
1102.5172      	1102.4944      	1102.4895      	1102.5503      	1102.4788      	1102.4718      	1102.4858      	1102.448       	1102.4734      	1102.4816      	1102.4503      	1102.447       	1102.4425      	1102.4132      	1102.4448      	1102.4624      	1102.4542      	1102.4397      	1102.4034      	1102.4509      	1102.4485      	1102.4421      	1102.4403      	1102.4406      	1102.4612      	1102.4944      	1102.5066      	1102.5061      	1102.5458      	1102.5264      	1102.5261      	1102.5457      	1102.5415      	1102.5449      	1102.5525      	1102.5249      	1102.553       	1102.5298      	1102.5396      	1102.5311      	1102.5201      	1102.509       	1102.5366      	1102.5336      	1102.5588      	1102.5549      	1102.6025      	1102.5236      	1102.606       	1102.6138      	1102.5374      	1102.5841      	1102.6271      	1102.59        	1102.5914      	1102.6072      	1102.6613      	1102.6603      	1102.6085      	1102.663       	1102.5972      	1102.657       	1102.6141      	1102.6141      	1102.7234      	1102.6355      	1102.6489      	1102.6669      	1102.6504      	1102.6624      	1102.7081      	1102.6783      	1102.676       	1102.6859      	1102.7292      	1102.7297      	1102.7384      	1102.7554      	1102.7583      	1102.7908      	1102.7683      	1102.7566      	1102.8043      	1102.788       	1102.832       	1102.799       	1102.8015      	1102.8342      	1102.8136      	1102.8352      	1102.7776      	1102.8743      	1102.8259      	1102.8098      	1102.8196      	1102.7655      	1102.8977      	1102.8123      	1102.5265      	1102.5326      	
1102.4333      	1102.4302      	1102.4178      	1102.3811      	1102.426       	1102.3873      	1102.3694      	1102.4125      	1102.4269      	1102.3994      	1102.388       	1102.3972      	1102.3523      	1102.4274      	1102.4324      	1102.4174      	1102.3889      	1102.4193      	1102.429       	1102.4379      	1102.4498      	1102.4042      	1102.4106      	1102.438       	1102.4983      	1102.4863      	1102.4526      	1102.4908      	1102.5168      	1102.5425      	1102.4869      	1102.4929      	1102.5056      	1102.4989      	1102.4514      	1102.478       	1102.4601      	1102.4746      	1102.4984      	1102.459       	1102.4691      	1102.4758      	1102.4822      	1102.4467      	1102.5022      	1102.511       	1102.5149      	1102.4882      	1102.5504      	1102.5747      	1102.6022      	1102.6189      	1102.5891      	1102.5615      	1102.6034      	1102.6145      	1102.5662      	1102.6646      	1102.6226      	1102.6094      	1102.5913      	1102.6226      	1102.6278      	1102.6252      	1102.636       	1102.6562      	1102.635       	1102.6372      	1102.6239      	1102.6067      	1102.6477      	1102.637       	1102.6525      	1102.6503      	1102.6462      	1102.6261      	1102.7183      	1102.67        	1102.7325      	1102.6838      	1102.663       	1102.7454      	1102.729       	1102.7167      	1102.7247      	1102.769       	1102.7261      	1102.7363      	1102.7362      	1102.76        	1102.7074      	1102.8364      	1102.7384      	1102.7316      	1102.6991      	1102.7089      	1102.674       	1102.6866      	1102.6748      	1102.6636      	
1102.4795      	1102.4598      	1102.4626      	1102.4501      	1102.5388      	1102.4852      	1102.4604      	1102.463       	1102.478       	1102.5276      	1102.4962      	1102.4778      	1102.4983      	1102.5269      	1102.487       	1102.4884      	1102.4979      	1102.5134      	1102.4532      	1102.4863      	1102.4952      	1102.4906      	1102.509       	1102.4945      	1102.5774      	1102.5057      	1102.5109      	1102.4923      	1102.4863      	1102.4794      	1102.5024      	1102.495       	1102.4929      	1102.4952      	1102.4894      	1102.5032      	1102.4863      	1102.5028      	1102.5126      	1102.4791      	1102.5752      	1102.5021      	1102.5077      	1102.5083      	1102.4995      	1102.4949      	1102.5277      	1102.5125      	1102.5387      	1102.5234      	1102.5166      	1102.5437      	1102.5574      	1102.5481      	1102.5858      	1102.5867      	1102.5365      	1102.5562      	1102.5876      	1102.5565      	1102.5756      	1102.5769      	1102.5885      	1102.5835      	1102.6108      	1102.6056      	1102.5848      	1102.602       	1102.6042      	1102.6007      	1102.589       	1102.6099      	1102.6033      	1102.6252      	1102.5745      	1102.6263      	1102.6497      	1102.6388      	1102.6592      	1102.6471      	1102.6877      	1102.6549      	1102.6855      	1102.6824      	1102.6564      	1102.6699      	1102.6473      	1102.6654      	1102.6815      	1102.6737      	1102.6366      	1102.7056      	1102.6499      	1102.681       	1102.682       	1102.6572      	1102.6079      	1102.6077      	1102.5382      	1102.5167      	
1102.6738      	1102.6423      	1102.598       	1102.6062      	1102.6503      	1102.5736      	1102.6196      	1102.6587      	1102.6592      	1102.6327      	1102.641       	1102.6317      	1102.6218      	1102.6213      	1102.6509      	1102.6458      	1102.6647      	1102.6512      	1102.6608      	1102.6346      	1102.6694      	1102.6431      	1102.6974      	1102.645       	1102.673       	1102.7152      	1102.6991      	1102.6757      	1102.7034      	1102.6633      	1102.6794      	1102.6226      	1102.6655      	1102.6415      	1102.6289      	1102.6606      	1102.6382      	1102.6213      	1102.655       	1102.6193      	1102.6238      	1102.6166      	1102.6112      	1102.6672      	1102.586       	1102.608       	1102.6514      	1102.6451      	1102.6753      	1102.686       	1102.6708      	1102.6244      	1102.6996      	1102.712       	1102.7198      	1102.7151      	1102.7108      	1102.7487      	1102.7671      	1102.7317      	1102.7185      	1102.7533      	1102.7524      	1102.7505      	1102.7544      	1102.7698      	1102.7163      	1102.7327      	1102.7253      	1102.7468      	1102.7251      	1102.7466      	1102.7546      	1102.771       	1102.7594      	1102.793       	1102.8146      	1102.8081      	1102.7793      	1102.8245      	1102.8208      	1102.8026      	1102.8087      	1102.8273      	1102.8254      	1102.8618      	1102.8127      	1102.7579      	1102.7954      	1102.7432      	1102.7656      	1102.7888      	1102.7264      	1102.7792      	1102.6835      	1102.7075      	1102.6991      	1102.7433      	1102.7036      	1102.6555      	
1102.8555      	1102.8624      	1102.8059      	1102.8312      	1102.842       	1102.8066      	1102.8677      	1102.8319      	1102.8635      	1102.8851      	1102.8862      	1102.8794      	1102.8928      	1102.9102      	1102.9425      	1102.9019      	1102.9534      	1102.9204      	1102.897       	1102.9661      	1102.8527      	1102.8973      	1102.9279      	1102.8893      	1102.9287      	1102.8875      	1102.8921      	1102.9165      	1102.9197      	1102.9598      	1102.914       	1102.9249      	1102.9712      	1102.9436      	1102.9161      	1102.913       	1102.9763      	1102.9194      	1102.9568      	1102.9554      	1102.9491      	1102.9501      	1102.9413      	1102.953       	1102.9702      	1102.9562      	1102.9834      	1102.9978      	1102.9972      	1103.051       	1103.078       	1103.095       	1103.0867      	1103.0387      	1103.0317      	1102.9836      	1103.0306      	1103.1118      	1103.0679      	1103.1355      	1103.104       	1103.0923      	1103.1477      	1103.0645      	1103.1019      	1103.071       	1103.1067      	1103.0691      	1103.1365      	1103.1342      	1103.096       	1103.09        	1103.1279      	1103.0878      	1103.1101      	1103.1317      	1103.1802      	1103.1079      	1103.0887      	1103.0908      	1103.13        	1103.111       	1103.0767      	1103.0985      	1103.0693      	1103.1167      	1103.0575      	1103.058       	1103.122       	1103.053       	1103.0466      	1103.0538      	1103.0144      	1103.0226      	1103.0392      	1103.0509      	1102.9993      	1102.3799      	1102.2211      	1102.484       	
1102.9005      	1102.9017      	1102.8671      	1102.8474      	1102.8586      	1102.8397      	1102.8496      	1102.8793      	1102.8088      	1102.8848      	1102.8873      	1102.8611      	1102.8872      	1102.9191      	1102.8757      	1102.9006      	1102.9298      	1102.963       	1102.9303      	1102.9194      	1102.9307      	1102.9187      	1102.9679      	1102.9069      	1102.9298      	1102.9161      	1102.9125      	1102.9211      	1102.9714      	1102.9402      	1102.939       	1102.9552      	1102.9089      	1102.9712      	1102.963       	1102.9402      	1102.9764      	1102.9474      	1102.9177      	1102.9481      	1102.9727      	1102.9669      	1102.9453      	1102.9327      	1102.9609      	1102.9517      	1103.0276      	1103.0177      	1103.004       	1103.036       	1102.9731      	1103.0085      	1103.073       	1103.0454      	1103.0482      	1103.0425      	1103.0525      	1103.1024      	1103.0968      	1103.0599      	1103.0972      	1103.1346      	1103.0724      	1103.1005      	1103.1062      	1103.1155      	1103.1346      	1103.1545      	1103.078       	1103.1167      	1103.1011      	1103.1486      	1103.134       	1103.1516      	1103.1804      	1103.1526      	1103.214       	1103.2058      	1103.2213      	1103.19        	1103.1827      	1103.1799      	1103.1792      	1103.2216      	1103.1722      	1103.2157      	1103.1447      	1103.1587      	1103.1737      	1103.1368      	1103.1581      	1103.2018      	1102.9968      	1102.8793      	1102.9503      	1102.7903      	1102.8378      	1102.9503      	1102.9152      	1102.8995      	
1102.8282      	1102.8627      	1102.8573      	1102.8241      	1102.8834      	1102.8469      	1102.8647      	1102.8492      	1102.8729      	1102.8577      	1102.8553      	1102.8849      	1102.8541      	1102.8958      	1102.8928      	1102.8943      	1102.9042      	1102.9155      	1102.954       	1102.934       	1102.9601      	1102.9196      	1102.9025      	1102.9146      	1102.9155      	1102.8982      	1102.9524      	1102.9353      	1102.936       	1102.9358      	1102.9468      	1102.9403      	1102.9271      	1102.9567      	1102.9856      	1102.9094      	1102.9594      	1102.9342      	1102.9716      	1102.9603      	1102.9875      	1102.9501      	1102.987       	1103.025       	1102.9825      	1102.9801      	1102.9784      	1103.0359      	1103.0251      	1103.007       	1103.0195      	1103.0332      	1103.0487      	1103.0564      	1103.0502      	1103.0638      	1103.0603      	1103.0627      	1103.0624      	1103.0901      	1103.0798      	1103.0658      	1103.063       	1103.0895      	1103.0878      	1103.0859      	1103.0736      	1103.0383      	1103.0653      	1103.049       	1103.0547      	1103.0636      	1103.0679      	1103.0256      	1103.054       	1103.075       	1103.1067      	1103.0997      	1103.1421      	1103.0962      	1103.0927      	1103.1138      	1103.1805      	1103.1853      	1103.1403      	1103.1476      	1103.1538      	1103.1818      	1102.9128      	1103.0139      	1102.7517      	1102.8557      	1102.926       	1103.0054      	1102.9362      	1102.9299      	1102.9456      	1102.9478      	1102.949       	1102.9602      	
1102.8104      	1102.8145      	1102.8103      	1102.7607      	1102.814       	1102.8099      	1102.8262      	1102.8419      	1102.8495      	1102.8251      	1102.8456      	1102.8517      	1102.8812      	1102.8572      	1102.868       	1102.8702      	1102.8876      	1102.8982      	1102.8965      	1102.8912      	1102.9143      	1102.8577      	1102.853       	1102.8928      	1102.9031      	1102.8755      	1102.8716      	1102.8717      	1102.8685      	1102.8585      	1102.8694      	1102.8481      	1102.8463      	1102.928       	1102.9006      	1102.9165      	1102.8967      	1102.9176      	1102.9437      	1102.927       	1102.935       	1102.9237      	1102.9376      	1102.964       	1102.946       	1102.9573      	1102.9751      	1102.9884      	1102.9835      	1102.9891      	1102.983       	1103.0244      	1102.993       	1103.0177      	1102.9904      	1102.9768      	1103.0587      	1103.0458      	1103.0989      	1103.0396      	1103.0076      	1103.0321      	1103.0382      	1103.0061      	1103.0701      	1103.0171      	1103.0244      	1103.0359      	1103.0349      	1103.0627      	1103.0472      	1103.0271      	1103.0725      	1103.0492      	1103.0671      	1103.0803      	1103.0679      	1103.084       	1103.0613      	1103.0688      	1103.1277      	1103.0232      	1103.1075      	1103.1196      	1103.0966      	1103.2126      	1102.6902      	1102.746       	1102.8855      	1102.9397      	1102.9994      	1102.9882      	1102.9194      	1102.9467      	1102.9663      	1102.9686      	1102.9314      	1102.9126      	1102.9197      	1102.8953      	
1102.7095      	1102.6741      	1102.7375      	1102.6887      	1102.6954      	1102.6251      	1102.6482      	1102.668       	1102.6652      	1102.7151      	1102.7433      	1102.6848      	1102.7329      	1102.7148      	1102.7416      	1102.7194      	1102.7286      	1102.7896      	1102.7389      	1102.7262      	1102.7352      	1102.755       	1102.7377      	1102.7532      	1102.7294      	1102.7493      	1102.7067      	1102.7745      	1102.7174      	1102.7632      	1102.7052      	1102.7329      	1102.7494      	1102.7407      	1102.7787      	1102.773       	1102.7394      	1102.7528      	1102.728       	1102.7596      	1102.7896      	1102.8185      	1102.8397      	1102.812       	1102.8204      	1102.8147      	1102.7976      	1102.8325      	1102.8591      	1102.8268      	1102.8547      	1102.872       	1102.8729      	1102.9066      	1102.8813      	1102.8855      	1102.9012      	1102.8894      	1102.8892      	1102.9435      	1102.912       	1102.8481      	1102.8866      	1102.9178      	1102.871       	1102.9177      	1102.9293      	1102.9128      	1102.8663      	1102.8857      	1102.8762      	1102.9465      	1102.926       	1102.8888      	1102.9312      	1102.9347      	1102.9618      	1102.9487      	1102.9347      	1102.9668      	1102.9803      	1102.8971      	1102.9641      	1102.9065      	1103.1025      	1102.5812      	1102.5754      	1102.8073      	1102.7578      	1102.8922      	1102.9441      	1102.8657      	1102.8826      	1102.897       	1102.877       	1102.8761      	1102.9012      	1102.9071      	1102.8679      	1102.8218      	
1102.6288      	1102.5975      	1102.6112      	1102.6124      	1102.6329      	1102.6487      	1102.5957      	1102.6245      	1102.6345      	1102.6377      	1102.6582      	1102.6259      	1102.6519      	1102.6694      	1102.6509      	1102.6735      	1102.6725      	1102.6943      	1102.6637      	1102.675       	1102.6981      	1102.7322      	1102.7163      	1102.6713      	1102.6788      	1102.7028      	1102.6655      	1102.7605      	1102.7107      	1102.6543      	1102.7104      	1102.6906      	1102.6665      	1102.7468      	1102.7251      	1102.7509      	1102.7395      	1102.7483      	1102.7712      	1102.7936      	1102.7981      	1102.7834      	1102.8123      	1102.7903      	1102.8064      	1102.7982      	1102.835       	1102.7887      	1102.8292      	1102.8455      	1102.8293      	1102.8524      	1102.8497      	1102.8718      	1102.8718      	1102.8574      	1102.8507      	1102.8301      	1102.8038      	1102.842       	1102.8633      	1102.8602      	1102.8641      	1102.8918      	1102.8168      	1102.8435      	1102.8628      	1102.8107      	1102.8741      	1102.8555      	1102.851       	1102.8591      	1102.88        	1102.8838      	1102.84        	1102.8416      	1102.8577      	1102.8755      	1102.904       	1102.8303      	1102.8729      	1102.8412      	1102.88        	1102.9178      	1102.711       	1102.3821      	1102.6199      	1102.7102      	1102.6746      	1102.7427      	1102.815       	1102.7445      	1102.731       	1102.7241      	1102.7549      	1102.707       	1102.7003      	1102.7335      	1102.6954      	1102.6731      	
1102.7059      	1102.6455      	1102.7316      	1102.7229      	1102.6906      	1102.7043      	1102.808       	1102.6393      	1102.723       	1102.7578      	1102.731       	1102.7377      	1102.7657      	1102.7815      	1102.7462      	1102.7803      	1102.7815      	1102.7786      	1102.7863      	1102.7312      	1102.7622      	1102.7493      	1102.7708      	1102.7563      	1102.761       	1102.7488      	1102.7461      	1102.7675      	1102.7902      	1102.7778      	1102.7714      	1102.8201      	1102.7583      	1102.8486      	1102.6968      	1102.8024      	1102.8087      	1102.8087      	1102.7622      	1102.8082      	1102.8304      	1102.8423      	1102.8157      	1102.8489      	1102.8179      	1102.8494      	1102.8517      	1102.8552      	1102.8899      	1102.8855      	1102.9015      	1102.8866      	1102.9044      	1102.888       	1102.8623      	1102.9103      	1102.8945      	1102.9188      	1102.9073      	1102.9049      	1102.9253      	1102.8962      	1102.8815      	1102.9287      	1102.92        	1102.8768      	1102.8544      	1102.8889      	1102.8904      	1102.9243      	1102.9077      	1102.8844      	1102.887       	1102.9038      	1102.88        	1102.8894      	1102.9143      	1102.8773      	1102.8496      	1102.8835      	1102.9288      	1102.9034      	1102.8342      	1102.924       	1102.6376      	1102.4447      	1102.6581      	1102.7795      	1102.7065      	1102.7798      	1102.8147      	1102.8191      	1102.822       	1102.762       	1102.8016      	1102.7681      	1102.703       	1102.7688      	1102.7802      	1102.717       	
1102.6299      	1102.6348      	1102.6368      	1102.6741      	1102.6637      	1102.6659      	1102.7317      	1102.7156      	1102.6935      	1102.7554      	1102.7017      	1102.7316      	1102.7238      	1102.729       	1102.7566      	1102.7384      	1102.7599      	1102.76        	1102.7511      	1102.7616      	1102.7533      	1102.7748      	1102.7347      	1102.7339      	1102.749       	1102.7377      	1102.7346      	1102.7018      	1102.7604      	1102.7576      	1102.7925      	1102.8757      	1102.6984      	1102.6606      	1102.6329      	1102.7555      	1102.8247      	1102.7788      	1102.7799      	1102.7645      	1102.8027      	1102.7749      	1102.8093      	1102.8069      	1102.8157      	1102.8153      	1102.8259      	1102.8141      	1102.8386      	1102.8745      	1102.852       	1102.856       	1102.8496      	1102.8165      	1102.8704      	1102.836       	1102.8622      	1102.7954      	1102.8303      	1102.8217      	1102.8153      	1102.825       	1102.8165      	1102.8036      	1102.8262      	1102.7936      	1102.8151      	1102.8253      	1102.8082      	1102.7847      	1102.759       	1102.8354      	1102.8336      	1102.8424      	1102.8585      	1102.8359      	1102.8528      	1102.8811      	1102.8225      	1102.8514      	1102.8545      	1102.8169      	1102.8292      	1102.7899      	1102.7036      	1102.4003      	1102.5648      	1102.7357      	1102.6183      	1102.6372      	1102.731       	1102.7374      	1102.743       	1102.6881      	1102.7048      	1102.7212      	1102.6962      	1102.6626      	1102.6991      	1102.7008      	
1102.7697      	1102.7881      	1102.8037      	1102.7904      	1102.7861      	1102.845       	1102.8873      	1102.8583      	1102.8495      	1102.8518      	1102.8778      	1102.8625      	1102.8931      	1102.8756      	1102.8958      	1102.8878      	1102.9093      	1102.9313      	1102.8856      	1102.8989      	1102.9137      	1102.8867      	1102.9108      	1102.9104      	1102.8798      	1102.9233      	1102.8752      	1102.8485      	1102.9027      	1102.8596      	1102.8899      	1102.9028      	1102.8871      	1102.9104      	1102.9194      	1102.9264      	1102.922       	1102.9346      	1102.9309      	1102.8992      	1102.9321      	1102.9767      	1102.9891      	1102.9778      	1102.9751      	1102.964       	1102.9502      	1102.9557      	1102.9487      	1102.9846      	1102.9402      	1102.9415      	1102.9524      	1102.907       	1102.9493      	1102.9257      	1102.961       	1102.8885      	1102.888       	1102.9321      	1102.9003      	1102.8966      	1102.9073      	1102.8678      	1102.9188      	1102.8795      	1102.8956      	1102.8875      	1102.8732      	1102.9066      	1102.8351      	1102.8688      	1102.872       	1102.8583      	1102.8313      	1102.8976      	1102.8967      	1102.9047      	1102.8877      	1102.9099      	1102.8586      	1102.8777      	1102.8544      	1102.8656      	1102.7981      	1102.4977      	1102.5574      	1102.677       	1102.7134      	1102.6624      	1102.6802      	1102.7599      	1102.7319      	1102.7124      	1102.7188      	1102.6902      	1102.6973      	1102.7635      	1102.8876      	1102.8525      	
1102.9216      	1102.9149      	1102.9298      	1102.9343      	1102.9508      	1102.9429      	1102.9679      	1102.989       	1102.9918      	1103.0007      	1103.0095      	1102.9714      	1103.0144      	1102.9882      	1103.0302      	1102.9592      	1102.9972      	1103.019       	1103.021       	1102.9855      	1103.0066      	1103.0148      	1102.9735      	1102.9877      	1102.9343      	1103.0339      	1102.987       	1102.9573      	1102.9865      	1102.9794      	1103.0437      	1103.0239      	1103.0156      	1103.0154      	1102.998       	1102.9915      	1102.9907      	1103.0132      	1103.0115      	1103.0002      	1103.0149      	1103.0266      	1103.0415      	1103.015       	1103.0408      	1103.0754      	1103.0499      	1103.062       	1103.0378      	1103.0756      	1103.0785      	1103.1224      	1103.0356      	1103.025       	1103.0061      	1103.0786      	1103.0626      	1103.0396      	1103.0302      	1103.057       	1103.0232      	1103.0852      	1103.0232      	1102.9963      	1103.004       	1103.0282      	1102.9945      	1103.0137      	1102.9946      	1102.9933      	1102.9973      	1103.0222      	1103.0118      	1102.9839      	1102.9879      	1102.9849      	1102.9875      	1102.9619      	1102.9763      	1103.0038      	1102.9513      	1102.9557      	1102.9733      	1102.9082      	1103.1034      	1102.5646      	1102.5717      	1102.7361      	1102.7988      	1102.7532      	1102.786       	1102.8617      	1102.8655      	1102.8865      	1102.8403      	1102.8751      	1102.8302      	1102.8445      	1102.7786      	1102.72        	
1102.9868      	1103.0007      	1102.9647      	1102.9626      	1103.0057      	1102.983       	1103.0204      	1103.0372      	1103.0874      	1102.998       	1103.0447      	1103.0431      	1103.05        	1103.0377      	1103.0575      	1103.0734      	1103.0833      	1103.0743      	1103.0515      	1103.0939      	1103.0706      	1103.0444      	1103.0327      	1103.0542      	1103.0359      	1103.0404      	1103.0721      	1103.0245      	1103.0375      	1103.0565      	1103.1012      	1103.0862      	1103.0923      	1103.0896      	1103.0828      	1103.1312      	1103.1052      	1103.0796      	1103.074       	1103.0776      	1103.1144      	1103.0784      	1103.1086      	1103.0822      	1103.1124      	1103.0781      	1103.0742      	1103.0804      	1103.0867      	1103.0668      	1103.1035      	1103.0548      	1103.0801      	1103.1237      	1103.0646      	1102.9454      	1102.7795      	1102.7858      	1102.9963      	1103.1438      	1103.1091      	1103.1757      	1103.1006      	1102.9735      	1103.063       	1103.0415      	1103.0828      	1103.0378      	1103.0604      	1103.029       	1103.0603      	1103.0366      	1103.0481      	1103.0768      	1103.0776      	1103.0612      	1103.0759      	1103.083       	1103.0779      	1103.0575      	1103.0812      	1103.0493      	1103.0454      	1103.065       	1103.1082      	1102.7468      	1102.5958      	1102.7808      	1102.8813      	1102.9124      	1102.8517      	1102.9614      	1102.9218      	1102.9204      	1102.8645      	1102.9662      	1102.9949      	1102.9303      	1102.9614      	1102.9279      	
1102.9214      	1103.0005      	1102.9159      	1102.9792      	1102.9602      	1102.9452      	1103.0271      	1103.015       	1103.0079      	1103.0432      	1103.0187      	1103.0144      	1103.0442      	1103.03        	1103.0297      	1103.0314      	1103.0519      	1103.03        	1103.0907      	1103.0192      	1103.0347      	1102.9817      	1103.083       	1103.0106      	1103.0135      	1103.0176      	1103.0239      	1103.0402      	1103.02        	1103.087       	1103.0066      	1103.0681      	1103.0792      	1103.0974      	1103.0251      	1103.091       	1103.0925      	1103.0663      	1103.1604      	1103.1385      	1103.1223      	1103.1283      	1103.1049      	1103.1262      	1103.1366      	1103.1061      	1103.1082      	1103.1215      	1103.078       	1103.1597      	1103.1171      	1103.1544      	1102.8534      	1102.7039      	1102.8657      	1102.9797      	1103.0546      	1103.0001      	1102.95        	1103.0746      	1103.0096      	1103.1666      	1103.5466      	1103.3022      	1103.0251      	1103.0024      	1103.0532      	1103.0437      	1103.0282      	1103.0408      	1103.0057      	1103.036       	1103.0448      	1103.0623      	1103.0276      	1103.0427      	1103.0259      	1103.0499      	1103.0018      	1103.0208      	1102.9915      	1103.0305      	1102.998       	1102.9872      	1103.0098      	1102.7827      	1102.59        	1102.8145      	1102.8274      	1102.8074      	1102.8508      	1102.9186      	1102.9244      	1102.9935      	1102.9943      	1102.9657      	1102.9716      	1102.9946      	1102.9636      	1102.8987      	
1103.1322      	1103.1011      	1103.0796      	1103.0715      	1103.0604      	1103.1107      	1103.0703      	1103.1283      	1103.1069      	1103.1489      	1103.0471      	1103.1145      	1103.1069      	1103.0948      	1103.1036      	1103.108       	1103.1069      	1103.09        	1103.0835      	1103.0995      	1103.0681      	1103.0992      	1103.0836      	1103.1226      	1103.079       	1103.0627      	1103.1006      	1103.0134      	1103.0835      	1103.0751      	1103.1234      	1103.0487      	1103.1616      	1103.1489      	1103.1492      	1103.1282      	1103.1093      	1103.116       	1103.1388      	1103.1688      	1103.161       	1103.1211      	1103.1837      	1103.0966      	1103.2042      	1103.1702      	1102.9885      	1103.0803      	1102.9122      	1102.8962      	1103.0195      	1103.0143      	1102.9822      	1102.8419      	1102.797       	1102.8414      	1102.8533      	1102.8932      	1102.8733      	1102.849       	1103.0889      	1103.0684      	1103.1716      	1103.366       	1102.997       	1103.0618      	1103.0432      	1103.0846      	1103.0743      	1103.0087      	1103.0507      	1103.0337      	1103.0311      	1103.048       	1103.0487      	1103.004       	1103.0049      	1103.05        	1103.0009      	1103.053       	1102.9716      	1102.984       	1103.0009      	1102.966       	1102.9905      	1103.0667      	1102.5332      	1102.6012      	1102.7715      	1102.8113      	1102.7697      	1102.8962      	1102.9297      	1102.9247      	1102.9243      	1102.9347      	1102.9532      	1102.9417      	1102.9401      	1102.9696      	
1103.0415      	1103.0613      	1103.0569      	1103.0782      	1103.093       	1103.0977      	1103.0764      	1103.1199      	1103.1237      	1103.1011      	1103.1057      	1103.1202      	1103.1069      	1103.1438      	1103.129       	1103.1487      	1103.0985      	1103.1276      	1103.1095      	1103.0863      	1103.1083      	1103.1139      	1103.0646      	1103.1195      	1103.0885      	1103.0906      	1103.113       	1103.0492      	1103.1222      	1103.1235      	1103.1235      	1103.1105      	1103.14        	1103.129       	1103.131       	1103.1267      	1103.1954      	1103.1388      	1103.1586      	1103.159       	1103.1863      	1103.197       	1102.7975      	1103.1433      	1102.9308      	1102.9932      	1102.9846      	1103.1118      	1103.033       	1103.15        	1103.0878      	1103.0972      	1103.1294      	1103.086       	1103.1399      	1103.129       	1103.0554      	1103.0814      	1103.0857      	1103.1372      	1103.0222      	1103.2574      	1103.2212      	1103.3947      	1102.9532      	1103.051       	1103.0417      	1103.0465      	1103.0327      	1103.0734      	1103.0837      	1103.0571      	1103.0565      	1103.0747      	1103.0471      	1103.0337      	1103.0387      	1103.0083      	1102.9158      	1102.8538      	1102.7723      	1102.6362      	1102.7043      	1102.9158      	1103.0232      	1103.1193      	1102.6554      	1102.6711      	1102.8577      	1102.9368      	1102.8635      	1102.9529      	1102.9647      	1102.9911      	1102.9575      	1102.9442      	1102.9172      	1102.9226      	1102.9495      	1102.9431      	
1102.9434      	1103.0201      	1103.0455      	1103.0427      	1103.0568      	1103.0314      	1103.0588      	1103.0984      	1103.0737      	1103.0852      	1103.0566      	1103.1261      	1103.0741      	1103.0787      	1103.0673      	1103.0709      	1103.0405      	1103.0637      	1103.0829      	1103.0471      	1103.0201      	1103.0764      	1103.0731      	1103.0732      	1103.0399      	1103.0769      	1103.0626      	1103.0339      	1103.1143      	1103.145       	1103.148       	1103.0485      	1103.102       	1103.0552      	1103.1191      	1103.1093      	1103.1423      	1103.1626      	1102.8123      	1102.8665      	1102.9036      	1102.8972      	1103.0444      	1103.0564      	1103.0609      	1103.0594      	1103.0988      	1103.0819      	1103.0573      	1103.0569      	1103.0718      	1103.0422      	1103.0765      	1103.0455      	1103.0688      	1103.0388      	1103.0208      	1103.0636      	1103.0383      	1103.004       	1102.9304      	1103.2688      	1103.1821      	1103.1964      	1103.2928      	1103.0253      	1103.0638      	1103.0232      	1103.0161      	1102.9966      	1103.0258      	1102.9923      	1103.0182      	1103.0052      	1103.015       	1103.0226      	1102.9913      	1103.0051      	1103.0044      	1102.9845      	1103.018       	1102.9806      	1102.9783      	1102.996       	1103.0134      	1103.0513      	1102.645       	1102.6022      	1102.8263      	1102.8608      	1102.8466      	1102.8783      	1102.9543      	1102.9727      	1102.9396      	1102.9851      	1103.0131      	1102.9739      	1103.0001      	1102.9872      	
1103.0974      	1103.0763      	1103.0745      	1103.0718      	1103.1017      	1103.1167      	1103.1091      	1103.1711      	1103.0623      	1103.1321      	1103.0574      	1103.1504      	1103.1177      	1103.0858      	1103.0884      	1103.1066      	1103.0785      	1103.1097      	1103.1172      	1103.1086      	1103.0824      	1103.0906      	1103.0854      	1103.0881      	1103.0891      	1103.1317      	1103.0948      	1103.1654      	1103.0568      	1103.1364      	1103.1597      	1103.1633      	1103.1909      	1103.2434      	1102.7527      	1102.8746      	1103.1249      	1103.0723      	1103.0261      	1103.1155      	1103.1399      	1103.1716      	1103.1322      	1103.1512      	1103.1528      	1103.0812      	1103.0984      	1103.1166      	1103.0968      	1103.0978      	1103.086       	1103.1326      	1103.0636      	1103.085       	1103.0664      	1103.1141      	1103.0691      	1103.0837      	1103.063       	1102.9968      	1103.0481      	1103.0806      	1103.3246      	1103.3461      	1103.062       	1103.034       	1103.0098      	1103.0122      	1103.0393      	1103.0018      	1103.0586      	1103.0118      	1102.9967      	1102.998       	1102.9843      	1102.9868      	1102.9739      	1102.9435      	1102.9758      	1102.9589      	1102.9799      	1102.9785      	1102.9902      	1102.9563      	1102.9901      	1102.9628      	1102.8673      	1102.5706      	1102.6707      	1102.852       	1102.8385      	1102.8173      	1102.911       	1102.9481      	1102.9539      	1102.9148      	1103.0295      	1102.906       	1102.7864      	1102.859       	
1103.1951      	1103.2289      	1103.1746      	1103.2018      	1103.2122      	1103.228       	1103.2375      	1103.2052      	1103.2721      	1103.2087      	1103.2642      	1103.2473      	1103.2303      	1103.2374      	1103.2186      	1103.263       	1103.2737      	1103.2249      	1103.232       	1103.3027      	1103.4071      	1103.2126      	1103.2567      	1103.2307      	1103.2361      	1103.2515      	1103.197       	1103.2101      	1103.3115      	1102.9614      	1103.3003      	1102.9491      	1103.0438      	1103.1823      	1103.1138      	1103.1658      	1103.2339      	1103.2296      	1103.2765      	1103.2993      	1103.2434      	1103.2681      	1103.2333      	1103.2662      	1103.2078      	1103.1993      	1103.1881      	1103.203       	1103.2081      	1103.2078      	1103.2346      	1103.1459      	1103.1747      	1103.1962      	1103.1293      	1103.1681      	1103.1252      	1103.154       	1103.1708      	1103.1008      	1103.0944      	1103.0771      	1103.2666      	1103.5288      	1103.3219      	1103.0486      	1103.1289      	1103.0917      	1103.0676      	1103.1195      	1103.1224      	1103.0715      	1103.0751      	1103.1018      	1103.12        	1103.049       	1103.0913      	1103.0269      	1103.036       	1103.0715      	1103.0066      	1103.0525      	1103.0234      	1103.0117      	1103.0397      	1103.0452      	1103.1135      	1102.5419      	1102.7803      	1102.8772      	1102.9033      	1102.9009      	1103.0071      	1103.026       	1103.0784      	1103.0276      	1103.0376      	1103.052       	1103.0109      	1103.0236      	
1103.2954      	1103.2825      	1103.3013      	1103.2295      	1103.3107      	1103.2657      	1103.3329      	1103.262       	1103.3367      	1103.3192      	1103.2505      	1103.3893      	1103.296       	1103.3596      	1103.3087      	1103.2926      	1103.2893      	1103.2875      	1103.2964      	1103.2773      	1103.2454      	1103.2415      	1103.2928      	1103.262       	1103.2777      	1103.31        	1103.3107      	1102.9321      	1102.9752      	1103.2172      	1103.3958      	1103.2184      	1103.251       	1103.3212      	1103.3416      	1103.3291      	1103.3556      	1103.2831      	1103.3074      	1103.3181      	1103.2804      	1103.2916      	1103.2544      	1103.2668      	1103.2671      	1103.2668      	1103.2405      	1103.2378      	1103.2305      	1103.2185      	1103.263       	1103.2274      	1103.1678      	1103.2561      	1103.1726      	1103.2354      	1103.1613      	1103.2361      	1103.2246      	1103.1154      	1103.2352      	1103.0629      	1103.2397      	1103.4669      	1103.582       	1103.115       	1103.1874      	1103.1562      	1103.0884      	1103.1604      	1103.1409      	1103.134       	1103.1079      	1103.1323      	1103.1555      	1103.1213      	1103.1205      	1103.0753      	1103.1274      	1103.1663      	1103.1086      	1103.1239      	1103.1267      	1103.111       	1103.1521      	1103.1095      	1103.1608      	1102.7367      	1102.7648      	1102.9614      	1103.0144      	1103.0422      	1103.0813      	1103.1409      	1103.1849      	1103.1532      	1103.1864      	1103.1526      	1103.1002      	1103.0695      	
1103.2578      	1103.2972      	1103.2635      	1103.3132      	1103.2833      	1103.3021      	1103.3046      	1103.3         	1103.3365      	1103.29        	1103.3119      	1103.3118      	1103.2942      	1103.2642      	1103.2937      	1103.3273      	1103.3123      	1103.2219      	1103.3331      	1103.2921      	1103.2649      	1103.3182      	1103.2676      	1103.2352      	1103.3265      	1103.1298      	1102.881       	1102.929       	1103.1122      	1103.2639      	1103.3268      	1103.2664      	1103.3091      	1103.3005      	1103.2651      	1103.2639      	1103.254       	1103.2616      	1103.2596      	1103.215       	1103.2206      	1103.2147      	1103.2595      	1103.2034      	1103.2317      	1103.1614      	1103.1719      	1103.1522      	1103.1929      	1103.2012      	1103.1749      	1103.1417      	1103.125       	1103.1261      	1103.1567      	1103.095       	1103.1804      	1103.1334      	1103.1593      	1103.1375      	1103.1149      	1103.1477      	1103.247       	1103.2761      	1103.5135      	1103.1946      	1103.1521      	1103.1586      	1103.1152      	1103.1776      	1103.1628      	1103.1323      	1103.1533      	1103.1881      	1103.1409      	1103.1421      	1103.1243      	1103.1486      	1103.1409      	1103.1232      	1103.1393      	1103.1294      	1103.1516      	1103.1401      	1103.143       	1103.1843      	1103.2247      	1102.9218      	1102.771       	1102.9387      	1103.1394      	1103.0449      	1103.0919      	1103.2571      	1103.1788      	1103.2302      	1103.2786      	1103.1956      	1103.2151      	1103.2241      	
1103.4294      	1103.4651      	1103.4362      	1103.4557      	1103.4575      	1103.4463      	1103.5062      	1103.4729      	1103.4481      	1103.4198      	1103.5022      	1103.4563      	1103.4617      	1103.453       	1103.4937      	1103.3892      	1103.4354      	1103.4832      	1103.3452      	1103.4413      	1103.4279      	1103.3735      	1103.4393      	1103.495       	1103.3898      	1102.9596      	1103.1897      	1103.2815      	1103.3556      	1103.5057      	1103.5521      	1103.5323      	1103.4556      	1103.4608      	1103.4462      	1103.4752      	1103.4312      	1103.4559      	1103.4102      	1103.3992      	1103.3802      	1103.3575      	1103.3411      	1103.3757      	1103.363       	1103.3424      	1103.3553      	1103.2887      	1103.3256      	1103.3347      	1103.3403      	1103.3086      	1103.2648      	1103.342       	1103.363       	1103.2894      	1103.3507      	1103.2661      	1103.3392      	1103.3041      	1103.2794      	1103.2839      	1103.3523      	1103.4769      	1103.6675      	1103.4952      	1103.2773      	1103.2736      	1103.2433      	1103.2664      	1103.2694      	1103.2697      	1103.2279      	1103.2573      	1103.25        	1103.2284      	1103.2029      	1103.2075      	1103.2251      	1103.1877      	1103.2107      	1103.1665      	1103.1962      	1103.2037      	1103.1533      	1103.1777      	1103.2269      	1103.1929      	1102.9182      	1102.8749      	1103.0743      	1103.1255      	1103.135       	1103.243       	1103.1794      	1103.2089      	1103.2273      	1103.2432      	1103.1984      	1103.1803      	
1103.7169      	1103.7482      	1103.7157      	1103.7404      	1103.7194      	1103.719       	1103.7882      	1103.7034      	1103.7175      	1103.7642      	1103.7194      	1103.7252      	1103.7473      	1103.656       	1103.6975      	1103.7162      	1103.6841      	1103.7146      	1103.6747      	1103.689       	1103.7277      	1103.6675      	1103.685       	1103.8322      	1103.3179      	1103.3705      	1103.5326      	1103.6036      	1103.6278      	1103.718       	1103.76        	1103.688       	1103.728       	1103.7667      	1103.7266      	1103.6093      	1103.6544      	1103.6721      	1103.629       	1103.6954      	1103.6487      	1103.6218      	1103.6091      	1103.5945      	1103.6616      	1103.632       	1103.6053      	1103.5521      	1103.5647      	1103.5573      	1103.5834      	1103.5018      	1103.5604      	1103.5634      	1103.5037      	1103.5376      	1103.5935      	1103.582       	1103.5577      	1103.6375      	1103.6105      	1103.4784      	1103.5422      	1103.717       	1103.8644      	1103.8645      	1103.4655      	1103.4968      	1103.5725      	1103.4437      	1103.4888      	1103.4861      	1103.4167      	1103.4708      	1103.5098      	1103.464       	1103.4259      	1103.4552      	1103.4517      	1103.4507      	1103.452       	1103.4266      	1103.4072      	1103.444       	1103.405       	1103.4218      	1103.4161      	1103.4598      	1102.9508      	1103.1222      	1103.3252      	1103.3976      	1103.2925      	1103.4121      	1103.4456      	1103.4905      	1103.4692      	1103.4774      	1103.4889      	1103.47        	
1104.0227      	1104.0289      	1104.0212      	1104.0027      	1104.0383      	1104.0508      	1104.0061      	1104.0842      	1103.9575      	1104.0391      	1103.9989      	1103.9874      	1103.9675      	1103.9706      	1103.9894      	1103.9714      	1104.0018      	1103.944       	1103.973       	1103.9915      	1103.9327      	1103.9843      	1103.9666      	1104.1224      	1103.5566      	1103.6775      	1103.8428      	1103.8867      	1103.8658      	1104.0103      	1103.9915      	1103.9349      	1104.0138      	1103.9546      	1103.9858      	1103.938       	1103.9208      	1103.9017      	1103.9209      	1103.904       	1103.9729      	1103.8499      	1103.9098      	1103.8428      	1103.8826      	1103.8228      	1103.8456      	1103.885       	1103.8387      	1103.8384      	1103.8542      	1103.8574      	1103.8127      	1103.7957      	1103.7651      	1103.9216      	1103.7887      	1103.8551      	1103.7972      	1103.8527      	1103.8269      	1103.8329      	1103.7814      	1103.8289      	1104.0221      	1104.353       	1103.7788      	1103.8768      	1103.6388      	1103.7156      	1103.8083      	1103.7346      	1103.6848      	1103.6998      	1103.7137      	1103.7278      	1103.7311      	1103.7661      	1103.7255      	1103.7626      	1103.7151      	1103.6871      	1103.6958      	1103.7059      	1103.6906      	1103.6598      	1103.7343      	1103.7688      	1103.5483      	1103.3767      	1103.6006      	1103.6218      	1103.6708      	1103.7668      	1103.8289      	1103.9153      	1103.722       	1103.7583      	1103.7758      	1103.7205      	
1104.3029      	1104.2915      	1104.3248      	1104.3328      	1104.26        	1104.3339      	1104.3042      	1104.2925      	1104.2827      	1104.2483      	1104.3019      	1104.3069      	1104.2358      	1104.3188      	1104.1959      	1104.2584      	1104.2319      	1104.2899      	1104.239       	1104.1646      	1104.2766      	1104.2206      	1104.3201      	1104.2883      	1104.0547      	1103.8141      	1104.1296      	1104.0314      	1104.1333      	1104.2859      	1104.1919      	1104.3079      	1104.2261      	1104.2499      	1104.1824      	1104.241       	1104.217       	1104.1779      	1104.1978      	1104.1759      	1104.2056      	1104.1587      	1104.1589      	1104.0833      	1104.1312      	1104.0952      	1104.0997      	1104.0837      	1104.1083      	1104.1027      	1104.0663      	1104.0826      	1104.0723      	1104.0999      	1104.0638      	1104.0917      	1104.0282      	1104.1093      	1104.0745      	1104.0663      	1104.0359      	1104.1277      	1104.0269      	1103.9924      	1104.218       	1104.4923      	1104.1655      	1103.9587      	1104.0292      	1104.0065      	1104.0189      	1103.9891      	1103.9614      	1103.9633      	1103.9546      	1103.9875      	1103.9712      	1103.9739      	1103.9976      	1103.9698      	1103.9713      	1103.9702      	1103.978       	1103.9747      	1103.9359      	1103.9548      	1103.9783      	1104.0067      	1103.7339      	1103.5299      	1103.829       	1103.9592      	1103.8019      	1103.9773      	1104.0713      	1104.0763      	1104.0308      	1104.0808      	1103.9365      	1103.8907      	
1104.3021      	1104.3234      	1104.2804      	1104.3368      	1104.3567      	1104.242       	1104.2916      	1104.3331      	1104.2739      	1104.2616      	1104.282       	1104.2775      	1104.2771      	1104.255       	1104.288       	1104.269       	1104.2462      	1104.2593      	1104.3188      	1104.2485      	1104.2756      	1104.2538      	1104.2911      	1104.2899      	1104.3844      	1103.7404      	1104.0459      	1104.0942      	1104.1354      	1104.202       	1104.2943      	1104.2422      	1104.2544      	1104.2762      	1104.1876      	1104.2369      	1104.2213      	1104.2501      	1104.1997      	1104.2356      	1104.1858      	1104.1858      	1104.146       	1104.1764      	1104.2085      	1104.2029      	1104.1505      	1104.173       	1104.1517      	1104.1414      	1104.168       	1104.0867      	1104.135       	1104.1818      	1104.1193      	1104.2135      	1104.1735      	1104.2043      	1104.1833      	1104.1835      	1104.076       	1104.214       	1104.0366      	1104.2429      	1104.2024      	1104.3889      	1104.3916      	1104.0848      	1104.1444      	1104.105       	1104.1444      	1104.1229      	1104.1282      	1104.0791      	1104.1178      	1104.1395      	1104.1409      	1104.1022      	1104.1656      	1104.1383      	1104.1163      	1104.1362      	1104.114       	1104.1276      	1104.1448      	1104.1174      	1104.1434      	1104.1486      	1103.9792      	1103.7635      	1104.0093      	1104.0515      	1104.1161      	1104.1356      	1104.2573      	1104.2833      	1104.29        	1104.279       	1104.304       	1104.2545      	
1104.1738      	1104.0765      	1104.229       	1104.1965      	1104.2483      	1104.2291      	1104.2114      	1104.2698      	1104.1993      	1104.203       	1104.2059      	1104.1965      	1104.2141      	1104.2037      	1104.1862      	1104.1844      	1104.1404      	1104.2549      	1104.1774      	1104.2336      	1104.2452      	1104.1853      	1104.2869      	1104.2437      	1104.3596      	1103.7737      	1103.9609      	1104.1208      	1104.0706      	1104.1477      	1104.1854      	1104.276       	1104.1881      	1104.2225      	1104.2365      	1104.2449      	1104.1827      	1104.189       	1104.1698      	1104.1813      	1104.1224      	1104.1624      	1104.1213      	1104.1428      	1104.1307      	1104.1749      	1104.1134      	1104.1439      	1104.1688      	1104.0985      	1104.1534      	1104.1089      	1104.1554      	1104.1355      	1104.0817      	1104.1693      	1104.1101      	1104.1458      	1103.6986      	1103.8313      	1104.0073      	1104.0411      	1104.0767      	1104.146       	1104.2644      	1104.4136      	1104.4534      	1104.1094      	1104.123       	1104.0916      	1104.0837      	1104.1044      	1104.0491      	1104.0698      	1104.0743      	1104.0992      	1104.0889      	1104.0557      	1104.0695      	1104.0007      	1104.0089      	1104.0408      	1104.0403      	1104.0729      	1104.0222      	1104.0369      	1104.0851      	1104.1235      	1104.1528      	1103.5626      	1103.8042      	1103.9937      	1104.1055      	1104.0084      	1104.0775      	1104.1542      	1104.204       	1104.2008      	1104.1415      	1104.1581      	
1104.1841      	1104.2867      	1104.3723      	1104.0842      	1104.0927      	1104.1204      	1104.0762      	1104.1548      	1104.0045      	1104.0509      	1104.0675      	1104.0642      	1104.0659      	1104.0181      	1104.0367      	1104.0448      	1104.0262      	1104.037       	1104.0635      	1104.0201      	1104.0465      	1104.0743      	1104.1595      	1104.1455      	1104.2681      	1103.8834      	1103.6151      	1104.0034      	1104.0099      	1104.0007      	1104.0919      	1104.1627      	1103.9788      	1104.1218      	1104.0354      	1104.0837      	1104.062       	1104.0637      	1104.0281      	1104.0364      	1104.0481      	1104.0513      	1104.0187      	1104.01        	1104.0469      	1104.0085      	1103.8939      	1103.8059      	1103.9578      	1104.0186      	1103.9944      	1104.0145      	1104.0444      	1104.0339      	1104.0564      	1104.0413      	1104.0815      	1103.868       	1103.9691      	1104.1592      	1104.0344      	1103.9692      	1104.1147      	1103.9702      	1104.1459      	1104.2499      	1104.3104      	1103.993       	1103.9689      	1103.966       	1103.9579      	1103.9375      	1103.9819      	1103.8947      	1103.9797      	1103.9874      	1104.003       	1103.9891      	1103.9514      	1103.9841      	1104.0002      	1103.965       	1104.0281      	1103.9849      	1104.0002      	1104.0546      	1103.9675      	1104.005       	1104.1068      	1103.8364      	1103.6321      	1103.9326      	1103.9441      	1104.0167      	1104.068       	1104.1401      	1104.1125      	1104.142       	1104.1349      	1104.0798      	
1103.8542      	1103.9436      	1104.0093      	1104.2831      	1103.8419      	1103.8137      	1103.8124      	1103.8491      	1103.7704      	1103.8152      	1103.8276      	1103.771       	1103.7764      	1103.7917      	1103.7942      	1103.7455      	1103.7852      	1103.7938      	1103.783       	1103.8098      	1103.8112      	1103.8214      	1103.8289      	1103.7849      	1103.9         	1103.7065      	1103.3839      	1103.583       	1103.6593      	1103.7097      	1103.7598      	1103.7207      	1103.8403      	1103.8228      	1103.8141      	1103.7672      	1103.7781      	1103.8147      	1103.7626      	1103.7675      	1103.7521      	1103.7777      	1103.698       	1103.7383      	1103.8093      	1103.7495      	1103.6938      	1103.7922      	1103.7094      	1103.8243      	1103.8198      	1103.8114      	1103.7361      	1103.8145      	1103.7637      	1103.7974      	1103.7766      	1103.7743      	1103.784       	1103.7721      	1103.8671      	1103.8085      	1103.7372      	1103.9165      	1103.7958      	1103.7429      	1104.3136      	1103.7681      	1103.7524      	1103.7124      	1103.776       	1103.7424      	1103.7521      	1103.7366      	1103.7966      	1103.8126      	1103.7606      	1103.7806      	1103.7528      	1103.7579      	1103.76        	1103.7703      	1103.7772      	1103.8156      	1103.8         	1103.7786      	1103.8269      	1103.844       	1103.9032      	1103.6268      	1103.4493      	1103.6931      	1103.819       	1103.8239      	1103.8893      	1103.9963      	1103.9816      	1103.9882      	1103.9132      	1103.8545      	
1103.4637      	1103.466       	1103.8005      	1103.9241      	1103.5587      	1103.4702      	1103.5549      	1103.3761      	1103.5326      	1103.4772      	1103.3865      	1103.4666      	1103.5525      	1103.4459      	1103.463       	1103.4072      	1103.5579      	1103.4807      	1103.3759      	1103.5334      	1103.3944      	1103.3794      	1103.5076      	1103.5474      	1103.5479      	1103.6079      	1103.0725      	1103.248       	1103.3538      	1103.2693      	1103.3816      	1103.4972      	1103.4513      	1103.388       	1103.41        	1103.4011      	1103.4065      	1103.4218      	1103.4177      	1103.3635      	1103.365       	1103.3934      	1103.3938      	1103.3948      	1103.3987      	1103.4326      	1103.3987      	1103.3339      	1103.4169      	1103.3661      	1103.4337      	1103.4021      	1103.4176      	1103.3824      	1103.4263      	1103.4424      	1103.426       	1103.4121      	1103.4347      	1103.4747      	1103.4484      	1103.4263      	1103.4441      	1103.4728      	1103.4291      	1103.5186      	1103.8953      	1103.6418      	1103.3752      	1103.3821      	1103.4144      	1103.3677      	1103.4249      	1103.4285      	1103.3749      	1103.3933      	1103.3483      	1103.3906      	1103.3914      	1103.4104      	1103.4103      	1103.4164      	1103.4133      	1103.425       	1103.3931      	1103.4775      	1103.4366      	1103.4347      	1103.467       	1103.4954      	1102.9464      	1103.3665      	1103.4575      	1103.4493      	1103.552       	1103.5682      	1103.5833      	1103.6255      	1103.6085      	1103.5524      	
1103.4036      	1103.4413      	1103.4962      	1103.7465      	1103.4548      	1103.2573      	1103.3413      	1103.3748      	1103.2625      	1103.3448      	1103.4442      	1103.1716      	1103.3319      	1103.3357      	1103.1661      	1103.3015      	1103.2944      	1103.3759      	1103.1573      	1103.285       	1103.3876      	1103.3015      	1103.3237      	1103.3323      	1103.3501      	1103.4032      	1103.2701      	1102.9255      	1102.9819      	1103.149       	1103.3391      	1103.1875      	1103.2028      	1103.4193      	1103.255       	1103.2645      	1103.2942      	1103.2615      	1103.2571      	1103.227       	1103.295       	1103.2661      	1103.2769      	1103.2563      	1103.2886      	1103.3019      	1103.2363      	1103.2954      	1103.2804      	1103.271       	1103.3075      	1103.3137      	1103.3302      	1103.302       	1103.3322      	1103.3351      	1103.2457      	1103.2952      	1103.3802      	1103.2495      	1103.3378      	1103.3302      	1103.2423      	1103.3965      	1103.2712      	1103.3776      	1103.656       	1103.6753      	1103.3333      	1103.2205      	1103.3419      	1103.241       	1103.2462      	1103.2383      	1103.2723      	1103.286       	1103.2654      	1103.305       	1103.2505      	1103.2755      	1103.2766      	1103.3009      	1103.2906      	1103.3162      	1103.3119      	1103.3021      	1103.3306      	1103.3339      	1103.3264      	1103.2906      	1103.041       	1103.0652      	1103.287       	1103.2657      	1103.353       	1103.4661      	1103.4823      	1103.4447      	1103.4355      	1103.462       	
1103.4001      	1103.4885      	1103.4929      	1103.6553      	1103.581       	1103.3739      	1103.3414      	1103.2979      	1103.3632      	1103.2974      	1103.3995      	1103.2256      	1103.2517      	1103.3761      	1103.4011      	1103.2542      	1103.2114      	1103.4266      	1103.2821      	1103.3245      	1103.3427      	1103.2854      	1103.408       	1103.3683      	1103.3774      	1103.3956      	1103.3733      	1102.7838      	1103.0743      	1103.182       	1103.2064      	1103.2742      	1103.273       	1103.2778      	1103.2253      	1103.2365      	1103.2018      	1103.22        	1103.2526      	1103.2239      	1103.2544      	1103.2615      	1103.2223      	1103.2036      	1103.2714      	1103.2935      	1103.1873      	1103.3032      	1103.2169      	1103.2269      	1103.3239      	1103.3054      	1103.3326      	1103.3147      	1103.3048      	1103.3109      	1103.3002      	1103.3425      	1103.3312      	1103.2985      	1103.3807      	1103.2734      	1103.2524      	1103.3478      	1103.2882      	1103.323       	1103.6183      	1103.6459      	1103.3071      	1103.2742      	1103.2573      	1103.2355      	1103.3019      	1103.2222      	1103.2806      	1103.2755      	1103.2646      	1103.2714      	1103.3079      	1103.2405      	1103.256       	1103.3514      	1103.3196      	1103.3684      	1103.2856      	1103.3474      	1103.3351      	1103.3563      	1103.3494      	1103.4043      	1103.2374      	1102.9542      	1103.2762      	1103.3958      	1103.4209      	1103.4019      	1103.4941      	1103.497       	1103.3481      	1103.3358      	
1103.646       	1103.5903      	1103.7551      	1104.021       	1103.83        	1103.5724      	1103.5524      	1103.5251      	1103.5802      	1103.5789      	1103.4918      	1103.5944      	1103.6014      	1103.4824      	1103.5802      	1103.5671      	1103.5247      	1103.4836      	1103.5964      	1103.5562      	1103.536       	1103.5543      	1103.572       	1103.5808      	1103.5491      	1103.5542      	1103.6443      	1103.0897      	1103.2087      	1103.4331      	1103.2954      	1103.4637      	1103.385       	1103.5878      	1103.4373      	1103.5233      	1103.4816      	1103.494       	1103.4507      	1103.5013      	1103.5071      	1103.4232      	1103.4978      	1103.4675      	1103.4705      	1103.5326      	1103.4916      	1103.5236      	1103.4341      	1103.4731      	1103.505       	1103.4862      	1103.4587      	1103.4719      	1103.4744      	1103.5007      	1103.4167      	1103.5632      	1103.5643      	1103.4528      	1103.5199      	1103.5142      	1103.63        	1103.4725      	1103.5298      	1103.5133      	1103.6334      	1103.8134      	1103.5645      	1103.442       	1103.503       	1103.4183      	1103.4377      	1103.4822      	1103.4374      	1103.4735      	1103.4958      	1103.5153      	1103.4327      	1103.4861      	1103.4836      	1103.5005      	1103.4786      	1103.5266      	1103.4746      	1103.4875      	1103.5431      	1103.4702      	1103.5708      	1103.5406      	1103.476       	1103.1748      	1103.3679      	1103.4788      	1103.4518      	1103.6167      	1103.6744      	1103.5525      	1103.555       	1103.5974      	
1103.9075      	1103.8256      	1103.8588      	1104.1776      	1104.1873      	1103.7532      	1103.8474      	1103.8252      	1103.8192      	1103.774       	1103.921       	1103.8201      	1103.8511      	1103.85        	1103.7329      	1103.7633      	1103.993       	1103.6925      	1103.8124      	1103.7952      	1103.8114      	1103.7937      	1103.796       	1103.8491      	1103.7859      	1103.859       	1103.8258      	1103.6292      	1103.3901      	1103.5615      	1103.5594      	1103.6704      	1103.7433      	1103.716       	1103.7362      	1103.6815      	1103.7089      	1103.7556      	1103.7717      	1103.7897      	1103.705       	1103.7374      	1103.7876      	1103.7682      	1103.7856      	1103.6636      	1103.7605      	1103.7605      	1103.767       	1103.8074      	1103.7761      	1103.7955      	1103.7609      	1103.7751      	1103.7583      	1103.7896      	1103.8191      	1103.7009      	1103.7853      	1103.7719      	1103.7278      	1103.8011      	1103.7297      	1103.7802      	1103.8165      	1103.7928      	1104.038       	1104.0715      	1103.8951      	1103.7577      	1103.6956      	1103.7708      	1103.6956      	1103.7349      	1103.6733      	1103.7074      	1103.6453      	1103.739       	1103.7206      	1103.7225      	1103.6929      	1103.7762      	1103.739       	1103.7327      	1103.7228      	1103.7518      	1103.8221      	1103.7667      	1103.7068      	1103.8489      	1103.9232      	1103.374       	1103.5731      	1103.6763      	1103.7072      	1103.792       	1103.898       	1103.929       	1103.8712      	1103.8641      	
1104.0579      	1104.0171      	1104.0558      	1104.3048      	1104.3883      	1104.0963      	1104.0232      	1103.9377      	1103.9875      	1104.0045      	1103.9888      	1103.9744      	1103.9685      	1103.9376      	1103.9935      	1103.9113      	1104.0148      	1103.954       	1103.9933      	1103.9985      	1103.9625      	1104.0284      	1103.955       	1104.0863      	1103.9915      	1103.9891      	1103.9882      	1103.6765      	1103.5508      	1103.6942      	1103.5596      	1103.7542      	1103.9161      	1103.992       	1103.7845      	1103.7124      	1103.8187      	1104.051       	1103.6902      	1103.8224      	1103.928       	1103.8798      	1103.8318      	1103.8595      	1103.8542      	1103.927       	1103.8495      	1103.8677      	1103.9126      	1103.9233      	1103.937       	1103.9333      	1103.905       	1103.9186      	1103.9279      	1103.9153      	1103.9302      	1103.8615      	1103.927       	1103.9401      	1103.8741      	1103.9517      	1103.9147      	1103.9026      	1104.0413      	1103.7966      	1104.0475      	1104.2482      	1104.2098      	1103.8044      	1103.8914      	1103.8948      	1103.8937      	1103.882       	1103.9077      	1103.8536      	1103.9312      	1103.8531      	1103.8866      	1103.9292      	1104.0118      	1103.8132      	1103.9503      	1103.9904      	1103.9481      	1104.0238      	1103.9758      	1104.0215      	1103.9851      	1103.9915      	1104.1442      	1103.6887      	1103.757       	1103.8972      	1103.9419      	1104.0603      	1104.0298      	1103.9679      	1104.059       	1104.0896      	
1104.2253      	1104.2413      	1104.2502      	1104.3673      	1104.5835      	1104.3214      	1104.1792      	1104.232       	1104.1501      	1104.184       	1104.145       	1104.141       	1104.1335      	1104.166       	1104.1306      	1104.2013      	1104.0913      	1104.2128      	1104.07        	1104.1927      	1104.2026      	1104.2062      	1104.0504      	1104.1818      	1104.1315      	1104.2063      	1104.1473      	1104.1215      	1103.6027      	1103.9135      	1104.031       	1104.0322      	1104.1389      	1103.9968      	1104.12        	1104.074       	1104.2441      	1103.978       	1103.9524      	1104.0903      	1104.1259      	1104.1146      	1104.1559      	1104.1017      	1104.1199      	1104.1611      	1104.1681      	1104.1575      	1104.1824      	1104.1821      	1104.102       	1104.2231      	1104.1525      	1104.1407      	1104.2073      	1104.1311      	1104.1378      	1104.1382      	1104.1877      	1104.2079      	1104.2157      	1104.1987      	1104.1985      	1104.1125      	1104.2151      	1104.1681      	1104.2257      	1104.3933      	1104.4719      	1104.0499      	1104.0984      	1104.1005      	1104.1355      	1104.0978      	1104.1104      	1104.0618      	1104.1228      	1104.1067      	1104.1095      	1104.1089      	1104.1122      	1104.1112      	1104.1785      	1104.1907      	1104.197       	1104.1808      	1104.2212      	1104.1824      	1104.2201      	1104.264       	1104.2515      	1103.9355      	1103.922       	1104.2013      	1104.2793      	1104.2859      	1104.0642      	1104.2356      	1104.2356      	1104.2996      	
1104.4363      	1104.4224      	1104.3837      	1104.5756      	1104.7394      	1104.7073      	1104.4147      	1104.2937      	1104.4644      	1104.3958      	1104.4104      	1104.4031      	1104.3883      	1104.4127      	1104.3998      	1104.4335      	1104.3679      	1104.424       	1104.3306      	1104.4403      	1104.369       	1104.4094      	1104.3801      	1104.3921      	1104.3843      	1104.4247      	1104.3895      	1104.3705      	1103.8535      	1104.1833      	1104.249       	1104.2437      	1104.3146      	1104.2742      	1104.3661      	1104.3433      	1104.3795      	1104.414       	1104.3594      	1104.3799      	1104.358       	1104.388       	1104.3876      	1104.3849      	1104.3718      	1104.4241      	1104.3579      	1104.3713      	1104.4036      	1104.394       	1104.4083      	1104.3455      	1104.3741      	1104.4333      	1104.3546      	1104.4054      	1104.3802      	1104.407       	1104.4028      	1104.4463      	1104.4376      	1104.4169      	1104.4734      	1104.3333      	1104.4153      	1104.4055      	1104.4042      	1104.6644      	1104.7421      	1104.5111      	1104.3213      	1104.3392      	1104.3171      	1104.3804      	1104.3982      	1104.3025      	1104.4167      	1104.3555      	1104.397       	1104.4158      	1104.3871      	1104.4226      	1104.4517      	1104.4843      	1104.5037      	1104.4818      	1104.4543      	1104.4384      	1104.4844      	1104.4747      	1104.5604      	1104.2549      	1104.302       	1104.4766      	1104.3087      	1104.3663      	1104.5073      	1104.44        	1104.438       	1104.5823      	
1104.6354      	1104.58        	1104.6134      	1104.6338      	1104.895       	1104.9121      	1104.4728      	1104.4753      	1104.5298      	1104.572       	1104.5392      	1104.5779      	1104.5427      	1104.6328      	1104.5995      	1104.5454      	1104.5634      	1104.5845      	1104.5455      	1104.6665      	1104.4843      	1104.5359      	1104.614       	1104.4812      	1104.5532      	1104.5542      	1104.5625      	1104.6061      	1104.282       	1104.1027      	1104.3507      	1104.3751      	1104.4628      	1104.5233      	1104.6024      	1104.4225      	1104.5646      	1104.5184      	1104.5542      	1104.6051      	1104.5492      	1104.5696      	1104.5078      	1104.5836      	1104.5449      	1104.5851      	1104.584       	1104.5431      	1104.6189      	1104.5845      	1104.655       	1104.5916      	1104.6064      	1104.6326      	1104.5662      	1104.6229      	1104.619       	1104.62        	1104.5999      	1104.5892      	1104.6008      	1104.6257      	1104.6302      	1104.6062      	1104.7114      	1104.5396      	1104.5912      	1104.7035      	1105.0131      	1104.803       	1104.5065      	1104.5282      	1104.5533      	1104.5435      	1104.5956      	1104.565       	1104.5482      	1104.6046      	1104.6086      	1104.5726      	1104.623       	1104.5968      	1104.6346      	1104.6599      	1104.6078      	1104.674       	1104.6558      	1104.6575      	1104.7173      	1104.701       	1104.7372      	1104.6838      	1104.5206      	1104.5618      	1104.4454      	1104.551       	1104.658       	1104.7087      	1104.737       	1104.7753      	
1104.9172      	1104.9238      	1104.9001      	1104.905       	1105.1642      	1105.2195      	1104.9491      	1104.8364      	1104.862       	1104.9318      	1104.7703      	1104.8357      	1104.9304      	1104.8022      	1104.8159      	1104.8177      	1104.9125      	1104.8086      	1104.8849      	1104.8357      	1104.8956      	1104.9552      	1104.8351      	1104.77        	1104.8671      	1104.789       	1104.8263      	1104.9023      	1104.587       	1104.3163      	1104.5667      	1104.6191      	1104.7883      	1104.8229      	1104.6124      	1104.7439      	1104.8228      	1104.7031      	1104.7006      	1104.888       	1104.7994      	1104.8068      	1104.8618      	1104.826       	1104.9097      	1104.7765      	1104.8125      	1104.8218      	1104.8392      	1104.8468      	1104.8282      	1104.886       	1104.977       	1104.7307      	1104.7678      	1104.8467      	1104.8337      	1104.8677      	1104.7852      	1104.8641      	1104.8217      	1104.8402      	1104.8605      	1104.7676      	1104.8175      	1104.869       	1104.791       	1104.8821      	1105.1616      	1105.1248      	1104.7241      	1104.7883      	1104.829       	1104.7552      	1104.8298      	1104.7941      	1104.757       	1104.8168      	1104.8435      	1104.7667      	1104.8297      	1104.8375      	1104.8041      	1104.8566      	1104.8818      	1104.92        	1104.8322      	1104.8641      	1104.91        	1104.8318      	1104.9178      	1104.8608      	1104.9778      	1104.7202      	1104.6069      	1104.7169      	1104.8335      	1104.9733      	1105.0918      	1105.0847      	
1105.0358      	1105.0214      	1105.0312      	1105.0292      	1105.2081      	1105.3849      	1105.204       	1105.0057      	1105.021       	1104.9976      	1105.0352      	1105.0404      	1104.9905      	1105.0448      	1105.0022      	1105.035       	1104.9973      	1104.9885      	1105.0076      	1105.0022      	1105.0193      	1104.9983      	1104.9965      	1105.0193      	1104.9656      	1105.0111      	1105.0491      	1105.0851      	1104.9689      	1104.5405      	1104.7998      	1104.8145      	1104.8973      	1104.9858      	1104.9807      	1105.0046      	1105.0773      	1105.0154      	1105.0116      	1105.0046      	1105.0906      	1105.1473      	1104.896       	1105.0135      	1105.146       	1105.0369      	1105.0665      	1105.04        	1105.0675      	1105.1342      	1105.0562      	1105.0863      	1105.0446      	1105.0585      	1105.1036      	1105.0137      	1105.1154      	1105.0802      	1105.0005      	1105.0782      	1105.0497      	1105.0323      	1105.1155      	1105.0563      	1105.0254      	1105.1428      	1105.0555      	1105.1239      	1105.208       	1105.4766      	1105.0396      	1104.9866      	1105.013       	1105.0027      	1105.0054      	1105.1112      	1104.9685      	1105.0145      	1105.0011      	1105.0876      	1105.0365      	1105.0723      	1105.0526      	1105.0977      	1105.0911      	1105.1005      	1105.1287      	1105.0948      	1105.1693      	1105.0948      	1105.1425      	1105.0687      	1105.1349      	1105.1625      	1105.1483      	1104.9916      	1105.0562      	1105.1816      	1105.0698      	1105.0508      	
1105.2086      	1105.1301      	1105.3462      	1105.2335      	1105.2858      	1105.3477      	1105.6444      	1105.0747      	1105.2034      	1105.1625      	1105.2482      	1105.1376      	1105.2245      	1105.2004      	1105.1274      	1105.2112      	1105.2668      	1105.1398      	1105.2058      	1105.1814      	1105.1942      	1105.22        	1105.2026      	1105.2756      	1105.1633      	1105.1616      	1105.2251      	1105.219       	1105.2888      	1104.7258      	1104.8916      	1105.0667      	1105.059       	1105.1191      	1105.1835      	1105.1952      	1105.1897      	1105.2317      	1105.2593      	1105.2104      	1105.3993      	1105.0864      	1105.1353      	1105.1769      	1105.3953      	1105.2787      	1105.2756      	1105.2903      	1105.3068      	1105.2856      	1105.374       	1105.3118      	1105.2872      	1105.3212      	1105.3326      	1105.3202      	1105.2922      	1105.3752      	1105.26        	1105.3236      	1105.3237      	1105.299       	1105.2639      	1105.3433      	1105.3517      	1105.2896      	1105.4027      	1105.298       	1105.4335      	1105.5245      	1105.5243      	1105.2819      	1105.2546      	1105.289       	1105.2831      	1105.2737      	1105.2646      	1105.2922      	1105.2961      	1105.2937      	1105.3059      	1105.3113      	1105.3436      	1105.3198      	1105.3213      	1105.3224      	1105.368       	1105.3525      	1105.3824      	1105.2804      	1105.3871      	1105.328       	1105.3683      	1105.3134      	1105.3629      	1105.2642      	1105.2782      	1105.2423      	1105.2511      	1105.2798      	
1105.2594      	1105.2949      	1105.2761      	1105.4103      	1105.2482      	1105.4917      	1105.6023      	1105.3218      	1105.2144      	1105.229       	1105.2089      	1105.2761      	1105.233       	1105.2673      	1105.2439      	1105.2396      	1105.2675      	1105.2224      	1105.2623      	1105.2521      	1105.2374      	1105.2815      	1105.2938      	1105.3201      	1105.2124      	1105.2152      	1105.2158      	1105.3146      	1105.282       	1105.1228      	1104.8049      	1104.989       	1105.1172      	1105.2468      	1105.4021      	1105.2147      	1105.3114      	1105.3234      	1105.2787      	1105.2903      	1105.314       	1105.284       	1105.3882      	1105.3546      	1105.356       	1105.3168      	1105.3403      	1105.3234      	1105.3585      	1105.2937      	1105.3503      	1105.3358      	1105.41        	1105.3257      	1105.4182      	1105.3606      	1105.3425      	1105.3097      	1105.2655      	1105.3538      	1105.345       	1105.3064      	1105.3511      	1105.3113      	1105.3582      	1105.3243      	1105.3634      	1105.3861      	1105.5497      	1105.4904      	1105.7251      	1105.4021      	1105.3179      	1105.2991      	1105.2893      	1105.3209      	1105.3342      	1105.291       	1105.3331      	1105.4187      	1105.3547      	1105.3531      	1105.3975      	1105.3673      	1105.4069      	1105.343       	1105.4044      	1105.3619      	1105.3739      	1105.4484      	1105.3085      	1105.376       	1105.4109      	1105.447       	1105.3774      	1105.4067      	1105.2937      	1105.3696      	1105.2833      	1105.3341      	
1105.3478      	1105.2439      	1105.3363      	1105.3003      	1105.3987      	1105.4288      	1105.6632      	1105.4646      	1105.2606      	1105.3989      	1105.288       	1105.3523      	1105.2952      	1105.3282      	1105.3385      	1105.2649      	1105.3         	1105.3406      	1105.3512      	1105.2872      	1105.3687      	1105.3163      	1105.3367      	1105.3525      	1105.3462      	1105.314       	1105.3217      	1105.321       	1105.4022      	1105.0027      	1104.8777      	1105.2284      	1105.211       	1105.227       	1105.3175      	1105.344       	1105.4058      	1105.388       	1105.4224      	1105.4158      	1105.4072      	1105.4061      	1105.4396      	1105.4354      	1105.4358      	1105.4435      	1105.5109      	1105.4337      	1105.5051      	1105.4128      	1105.4629      	1105.443       	1105.5242      	1105.3978      	1105.353       	1105.4924      	1105.4501      	1105.4498      	1105.4666      	1105.4028      	1105.4626      	1105.4803      	1105.551       	1105.3452      	1105.3302      	1105.4113      	1105.3987      	1105.4147      	1105.4391      	1105.5345      	1105.7538      	1105.7208      	1105.3801      	1105.4403      	1105.404       	1105.4199      	1105.4557      	1105.468       	1105.4598      	1105.4252      	1105.4382      	1105.5095      	1105.4565      	1105.5087      	1105.4858      	1105.5085      	1105.5048      	1105.511       	1105.5187      	1105.5698      	1105.3983      	1105.4619      	1105.5629      	1105.5154      	1105.5037      	1105.4417      	1105.5309      	1105.3143      	1105.1844      	1105.3329      	
1105.3214      	1105.2474      	1105.3842      	1105.2919      	1105.4401      	1105.4158      	1105.5624      	1105.5701      	1105.327       	1105.322       	1105.3378      	1105.3302      	1105.3435      	1105.3097      	1105.3704      	1105.3601      	1105.3097      	1105.2897      	1105.3475      	1105.28        	1105.3229      	1105.328       	1105.3386      	1105.3046      	1105.2932      	1105.3201      	1105.3221      	1105.3319      	1105.3733      	1105.1829      	1104.9384      	1105.125       	1105.2087      	1105.1337      	1105.364       	1105.3644      	1105.2727      	1105.4236      	1105.4003      	1105.3938      	1105.4355      	1105.4108      	1105.4271      	1105.5032      	1105.4435      	1105.5043      	1105.4423      	1105.4987      	1105.5006      	1105.4683      	1105.463       	1105.4722      	1105.4607      	1105.5065      	1105.4818      	1105.5011      	1105.5032      	1105.4979      	1105.584       	1105.5254      	1105.4705      	1105.5486      	1105.504       	1105.5327      	1105.4648      	1105.324       	1105.4286      	1105.4369      	1105.4607      	1105.6272      	1105.7104      	1105.4985      	1105.4435      	1105.4451      	1105.3983      	1105.4788      	1105.453       	1105.4309      	1105.4852      	1105.5107      	1105.4718      	1105.5255      	1105.511       	1105.5131      	1105.5468      	1105.5654      	1105.5128      	1105.6238      	1105.6766      	1105.3829      	1105.4595      	1105.4526      	1105.6066      	1105.541       	1105.4899      	1105.4971      	1105.4922      	1105.5142      	1105.3849      	1105.3191      	
1105.2128      	1105.1885      	1105.1759      	1105.2596      	1105.246       	1105.2684      	1105.5732      	1105.4646      	1105.271       	1105.2618      	1105.1869      	1105.3271      	1105.1757      	1105.2004      	1105.2317      	1105.1854      	1105.2214      	1105.2344      	1105.2158      	1105.2062      	1105.1829      	1105.1796      	1105.2297      	1105.1836      	1105.2968      	1105.2056      	1105.1117      	1105.1425      	1105.2694      	1105.3193      	1104.7158      	1105.0565      	1105.0472      	1105.1047      	1105.2473      	1105.2787      	1105.2683      	1105.2434      	1105.3022      	1105.3136      	1105.3143      	1105.3329      	1105.2427      	1105.3264      	1105.3264      	1105.2753      	1105.3977      	1105.295       	1105.3481      	1105.3049      	1105.3772      	1105.3032      	1105.3585      	1105.2634      	1105.37        	1105.2434      	1105.3137      	1105.4015      	1105.2878      	1105.3676      	1105.3429      	1105.167       	1105.3013      	1105.3865      	1105.295       	1105.2577      	1105.255       	1105.2717      	1105.4749      	1105.3175      	1105.5646      	1105.3063      	1105.3165      	1105.2645      	1105.2849      	1105.2452      	1105.3185      	1105.273       	1105.3342      	1105.254       	1105.3497      	1105.3538      	1105.3555      	1105.3357      	1105.321       	1105.3921      	1105.318       	1105.3579      	1105.3584      	1105.3695      	1105.2517      	1105.3661      	1105.2772      	1105.3181      	1105.3368      	1105.2919      	1105.3125      	1105.2865      	1105.1982      	1105.1558      	
1105.1251      	1105.1532      	1105.0641      	1105.1411      	1105.0654      	1105.2357      	1105.4337      	1105.5507      	1105.1206      	1105.1145      	1105.1573      	1105.0884      	1105.1154      	1105.1465      	1105.1427      	1105.078       	1105.1091      	1105.1589      	1105.0929      	1105.107       	1105.1077      	1105.1326      	1105.1226      	1105.132       	1105.1284      	1105.0978      	1105.1179      	1105.1406      	1105.1587      	1105.2466      	1104.7388      	1104.7793      	1105.0664      	1105.0057      	1105.1653      	1105.1705      	1105.1876      	1105.1292      	1105.2448      	1105.1567      	1105.2042      	1105.2224      	1105.1788      	1105.2534      	1105.1714      	1105.2097      	1105.1958      	1105.2227      	1105.2059      	1105.1681      	1105.2605      	1105.162       	1105.1952      	1105.1521      	1105.2185      	1105.2819      	1105.2825      	1105.3154      	1105.1111      	1105.3284      	1105.283       	1105.2485      	1105.2134      	1105.3081      	1105.2577      	1105.1914      	1105.1093      	1105.1948      	1105.2704      	1105.4865      	1105.1926      	1105.2107      	1105.2096      	1105.1864      	1105.2245      	1105.2299      	1105.2538      	1105.247       	1105.3358      	1105.3312      	1105.2745      	1105.2673      	1105.314       	1105.2961      	1105.2614      	1105.2717      	1105.3065      	1105.2766      	1105.3019      	1105.2866      	1105.2302      	1105.2771      	1105.2458      	1105.2765      	1105.2747      	1105.2219      	1105.2029      	1105.2081      	1105.2433      	1105.2098      	
1105.0327      	1104.9915      	1105.0941      	1105.144       	1105.0627      	1105.0505      	1105.1716      	1105.481       	1105.0687      	1105.072       	1105.0017      	1105.0465      	1105.0494      	1105.0829      	1105.065       	1105.0747      	1105.0809      	1105.0704      	1105.0729      	1105.0537      	1105.0648      	1105.079       	1105.0587      	1105.0735      	1105.0822      	1105.074       	1105.0154      	1105.0642      	1105.0812      	1105.1785      	1104.8123      	1104.6519      	1104.9221      	1104.9292      	1105.0681      	1105.1522      	1105.1838      	1105.1731      	1105.104       	1105.1466      	1105.1354      	1105.1729      	1105.179       	1105.1898      	1105.1917      	1105.1816      	1105.2234      	1105.215       	1105.0812      	1105.3566      	1105.0986      	1105.4271      	1105.1769      	1105.144       	1105.1692      	1105.2344      	1105.2123      	1105.2324      	1105.3016      	1105.091       	1105.1649      	1105.1735      	1105.2073      	1105.2655      	1105.3062      	1105.1606      	1105.1333      	1105.1431      	1105.153       	1105.1431      	1105.1932      	1105.1262      	1105.1394      	1105.2355      	1105.1912      	1105.1711      	1105.2062      	1105.1926      	1105.1716      	1105.2472      	1105.229       	1105.2212      	1105.2506      	1105.2201      	1105.2216      	1105.2417      	1105.2982      	1105.2551      	1105.2231      	1105.2422      	1105.2384      	1105.2257      	1105.2056      	1105.2137      	1105.2186      	1105.2148      	1105.1958      	1105.1748      	1105.1572      	1105.1536      	
1105.0529      	1105.0928      	1105.01        	1105.0564      	1105.1853      	1105.0718      	1105.1274      	1105.3859      	1105.3025      	1105.0363      	1105.0587      	1105.0116      	1105.0814      	1105.0414      	1105.0073      	1105.1118      	1105.064       	1105.1005      	1105.0977      	1105.0657      	1105.118       	1105.0813      	1105.1132      	1105.145       	1105.0994      	1105.1199      	1105.1116      	1105.1022      	1105.1926      	1105.1843      	1105.0804      	1104.551       	1105.0103      	1104.9363      	1105.0171      	1105.1506      	1105.2375      	1105.1492      	1105.259       	1105.1034      	1105.1385      	1105.1779      	1105.2281      	1105.1511      	1105.2428      	1105.2416      	1105.2085      	1105.2675      	1105.3503      	1105.1763      	1105.1522      	1105.2638      	1105.177       	1105.0569      	1105.2358      	1105.2589      	1105.2678      	1105.251       	1105.192       	1105.3099      	1105.324       	1105.1737      	1105.1882      	1105.1575      	1105.1882      	1105.1752      	1105.1573      	1105.1622      	1105.2073      	1105.1486      	1105.1896      	1105.1864      	1105.1704      	1105.2319      	1105.1765      	1105.2202      	1105.215       	1105.2397      	1105.2466      	1105.2257      	1105.2163      	1105.237       	1105.2546      	1105.2454      	1105.2596      	1105.2318      	1105.2266      	1105.2233      	1105.2361      	1105.2317      	1105.2311      	1105.1774      	1105.2222      	1105.2013      	1105.2085      	1105.1616      	1105.189       	1105.127       	1105.1293      	1105.1284      	
1105.2592      	1105.3052      	1105.3124      	1105.2965      	1105.2983      	1105.3105      	1105.3887      	1105.6613      	1105.6155      	1105.1411      	1105.2815      	1105.3153      	1105.2744      	1105.2113      	1105.268       	1105.2545      	1105.2406      	1105.2405      	1105.2563      	1105.2776      	1105.2631      	1105.219       	1105.2522      	1105.2433      	1105.2341      	1105.2449      	1105.1985      	1105.2322      	1105.2278      	1105.2302      	1105.2198      	1104.6927      	1105.0822      	1105.1652      	1105.0725      	1105.2227      	1105.3115      	1105.2909      	1105.2756      	1105.3014      	1105.3857      	1105.3398      	1105.2467      	1105.2439      	1105.3151      	1105.4725      	1105.2596      	1105.2908      	1105.2844      	1105.3091      	1105.5348      	1105.3114      	1105.3477      	1105.3079      	1105.4473      	1105.2631      	1105.5049      	1105.3083      	1105.3921      	1105.3396      	1105.2134      	1105.2534      	1105.2805      	1105.2394      	1105.3347      	1105.2844      	1105.3269      	1105.2505      	1105.3263      	1105.3661      	1105.3036      	1105.2548      	1105.2762      	1105.3192      	1105.3209      	1105.3491      	1105.3081      	1105.3735      	1105.3153      	1105.2762      	1105.376       	1105.3225      	1105.3738      	1105.2749      	1105.293       	1105.4124      	1105.3798      	1105.3756      	1105.2919      	1105.3229      	1105.3429      	1105.3156      	1105.3138      	1105.3132      	1105.3158      	1105.3201      	1105.3114      	1105.2975      	1105.2527      	1105.1816      	
1105.493       	1105.5507      	1105.3918      	1105.4025      	1105.5603      	1105.4768      	1105.5604      	1105.8689      	1105.8475      	1105.4088      	1105.5852      	1105.3323      	1105.5132      	1105.519       	1105.387       	1105.4081      	1105.3973      	1105.4014      	1105.4608      	1105.4331      	1105.4075      	1105.4434      	1105.4152      	1105.4226      	1105.47        	1105.4532      	1105.3938      	1105.4438      	1105.4053      	1105.4224      	1105.566       	1104.9102      	1105.3003      	1105.317       	1105.4355      	1105.472       	1105.5333      	1105.2874      	1105.5515      	1105.5145      	1105.5586      	1105.6903      	1105.4949      	1105.4393      	1105.5442      	1105.6229      	1105.5898      	1105.5524      	1105.5068      	1105.6284      	1105.67        	1105.6804      	1105.5569      	1105.5427      	1105.4825      	1105.4865      	1105.5073      	1105.5461      	1105.4259      	1105.4884      	1105.4344      	1105.4559      	1105.4705      	1105.4417      	1105.4277      	1105.4666      	1105.4373      	1105.4725      	1105.5295      	1105.4431      	1105.5112      	1105.476       	1105.4865      	1105.5623      	1105.5276      	1105.5593      	1105.5402      	1105.5841      	1105.5507      	1105.6035      	1105.613       	1105.4941      	1105.5568      	1105.541       	1105.5435      	1105.4841      	1105.4987      	1105.499       	1105.4766      	1105.5059      	1105.4504      	1105.4786      	1105.4518      	1105.4723      	1105.5599      	1105.3895      	1105.3674      	1105.3466      	1105.4009      	1105.3346      	
1105.6644      	1105.6349      	1105.5139      	1105.6044      	1105.7054      	1105.6388      	1105.7163      	1105.8934      	1105.9712      	1105.5807      	1105.551       	1105.7432      	1105.465       	1105.5935      	1105.5646      	1105.6287      	1105.604       	1105.6095      	1105.6049      	1105.5894      	1105.5728      	1105.5594      	1105.6038      	1105.5531      	1105.5897      	1105.5659      	1105.5994      	1105.614       	1105.6102      	1105.6252      	1105.6333      	1105.4197      	1105.326       	1105.4783      	1105.5128      	1105.5096      	1105.5544      	1105.5338      	1105.6655      	1105.6508      	1105.6833      	1105.7825      	1105.6226      	1105.6046      	1105.6782      	1105.7987      	1105.7384      	1105.7988      	1105.6731      	1105.6411      	1105.6262      	1105.6354      	1105.6036      	1105.6394      	1105.6047      	1105.628       	1105.6456      	1105.6299      	1105.5555      	1105.6411      	1105.603       	1105.6608      	1105.6272      	1105.6342      	1105.6125      	1105.6244      	1105.6515      	1105.5483      	1105.6809      	1105.6688      	1105.6428      	1105.5396      	1105.6879      	1105.6364      	1105.6722      	1105.6893      	1105.7472      	1105.7168      	1105.6664      	1105.6561      	1105.6907      	1105.6873      	1105.6461      	1105.6267      	1105.6594      	1105.6627      	1105.6538      	1105.622       	1105.7234      	1105.5599      	1105.5858      	1105.5684      	1105.55        	1105.5773      	1105.5541      	1105.5769      	1105.551       	1105.5751      	1105.5061      	1105.4332      	
1105.5452      	1105.4819      	1105.552       	1105.5627      	1105.4966      	1105.5873      	1105.5596      	1105.6818      	1105.9867      	1105.7124      	1105.4973      	1105.5499      	1105.5175      	1105.5144      	1105.5317      	1105.5168      	1105.503       	1105.537       	1105.5594      	1105.5023      	1105.5327      	1105.565       	1105.5438      	1105.6052      	1105.4594      	1105.4758      	1105.5774      	1105.5378      	1105.5532      	1105.5613      	1105.5795      	1105.6434      	1105.2593      	1105.5691      	1105.3978      	1105.444       	1105.6837      	1105.6351      	1105.6858      	1105.6534      	1105.6586      	1105.6676      	1105.6814      	1105.629       	1105.8239      	1105.6663      	1105.6471      	1105.6376      	1105.6659      	1105.625       	1105.6323      	1105.6584      	1105.6005      	1105.6626      	1105.6371      	1105.6198      	1105.6106      	1105.6647      	1105.6198      	1105.6495      	1105.6327      	1105.6464      	1105.563       	1105.6566      	1105.6388      	1105.6259      	1105.6628      	1105.6356      	1105.647       	1105.8373      	1105.5314      	1105.6349      	1105.7462      	1105.6692      	1105.7412      	1105.7006      	1105.6968      	1105.7388      	1105.7017      	1105.7255      	1105.6848      	1105.6931      	1105.6829      	1105.6663      	1105.7133      	1105.6654      	1105.6086      	1105.6454      	1105.6602      	1105.6073      	1105.6313      	1105.6387      	1105.6105      	1105.6232      	1105.6179      	1105.5657      	1105.5574      	1105.6301      	1105.5979      	1105.4725      	
1105.4027      	1105.4031      	1105.3678      	1105.3757      	1105.3752      	1105.4319      	1105.411       	1105.538       	1105.7605      	1105.7218      	1105.4061      	1105.3785      	1105.4109      	1105.3876      	1105.4297      	1105.4075      	1105.3964      	1105.3696      	1105.3798      	1105.426       	1105.3937      	1105.4108      	1105.4263      	1105.4298      	1105.384       	1105.4298      	1105.4161      	1105.3978      	1105.4038      	1105.4215      	1105.4435      	1105.3744      	1105.536       	1105.2544      	1105.2258      	1105.304       	1105.5171      	1105.4706      	1105.5706      	1105.4491      	1105.4266      	1105.4298      	1105.5374      	1105.4623      	1105.4777      	1105.4226      	1105.495       	1105.4833      	1105.4395      	1105.4766      	1105.4543      	1105.4591      	1105.4763      	1105.4576      	1105.4823      	1105.4764      	1105.4899      	1105.437       	1105.4628      	1105.4722      	1105.4819      	1105.4608      	1105.4694      	1105.4724      	1105.4485      	1105.461       	1105.449       	1105.4739      	1105.509       	1105.5364      	1105.5991      	1105.6055      	1105.549       	1105.5662      	1105.5582      	1105.5208      	1105.5503      	1105.5433      	1105.5548      	1105.5717      	1105.5308      	1105.5419      	1105.5437      	1105.4983      	1105.5442      	1105.4724      	1105.4677      	1105.5237      	1105.4796      	1105.4471      	1105.526       	1105.4702      	1105.3788      	1105.3909      	1105.4802      	1105.3894      	1105.4779      	1105.4979      	1105.4714      	1105.4092      	
1105.3173      	1105.2819      	1105.3182      	1105.378       	1105.3566      	1105.3875      	1105.2827      	1105.5481      	1105.4749      	1105.6743      	1105.3899      	1105.2356      	1105.2987      	1105.2942      	1105.2891      	1105.3185      	1105.3501      	1105.294       	1105.3337      	1105.2722      	1105.3348      	1105.2512      	1105.3221      	1105.2722      	1105.3145      	1105.2942      	1105.3269      	1105.2443      	1105.3185      	1105.3107      	1105.3595      	1105.3008      	1105.3507      	1105.261       	1105.3276      	1105.3973      	1105.3016      	1105.336       	1105.4032      	1105.328       	1105.3522      	1105.3646      	1105.3965      	1105.3702      	1105.3738      	1105.3607      	1105.4062      	1105.3595      	1105.4629      	1105.4181      	1105.4122      	1105.3544      	1105.3552      	1105.4174      	1105.3163      	1105.3785      	1105.2935      	1105.3588      	1105.3264      	1105.3556      	1105.2859      	1105.4044      	1105.3999      	1105.3292      	1105.3547      	1105.3839      	1105.3241      	1105.3683      	1105.3778      	1105.3884      	1105.4281      	1105.3553      	1105.5117      	1105.3269      	1105.4224      	1105.502       	1105.327       	1105.4125      	1105.452       	1105.4052      	1105.4275      	1105.4045      	1105.4049      	1105.3898      	1105.3889      	1105.4127      	1105.3472      	1105.3645      	1105.3724      	1105.3177      	1105.3533      	1105.3453      	1105.3026      	1105.4055      	1105.3038      	1105.411       	1105.3872      	1105.3313      	1105.2327      	1105.193       	
1105.5372      	1105.5381      	1105.4867      	1105.5957      	1105.5171      	1105.5068      	1105.5592      	1105.5472      	1105.6757      	1105.9089      	1105.7814      	1105.4595      	1105.504       	1105.4604      	1105.489       	1105.5183      	1105.4388      	1105.4769      	1105.5048      	1105.52        	1105.4359      	1105.4269      	1105.4619      	1105.4772      	1105.4276      	1105.4171      	1105.4526      	1105.4453      	1105.5875      	1105.3873      	1105.4846      	1105.4436      	1105.5154      	1105.4601      	1105.4264      	1105.4199      	1105.4705      	1105.5011      	1105.4972      	1105.486       	1105.4635      	1105.4768      	1105.4624      	1105.4679      	1105.5194      	1105.5125      	1105.4707      	1105.5189      	1105.497       	1105.5354      	1105.5316      	1105.4849      	1105.4602      	1105.4784      	1105.4882      	1105.4729      	1105.4612      	1105.4648      	1105.4744      	1105.5302      	1105.5199      	1105.4653      	1105.469       	1105.5221      	1105.4558      	1105.4872      	1105.475       	1105.503       	1105.5275      	1105.5759      	1105.5425      	1105.5735      	1105.543       	1105.5497      	1105.4852      	1105.5002      	1105.4913      	1105.5242      	1105.5151      	1105.497       	1105.4325      	1105.4912      	1105.4204      	1105.4851      	1105.4519      	1105.4803      	1105.4382      	1105.452       	1105.3892      	1105.4225      	1105.3838      	1105.387       	1105.427       	1105.3593      	1105.4126      	1105.3562      	1105.386       	1105.4011      	1105.3403      	1105.1704      	
1105.8063      	1105.853       	1105.8785      	1105.8329      	1105.91        	1105.9388      	1105.789       	1105.8163      	1105.9698      	1106.1443      	1106.0994      	1105.6858      	1105.7927      	1105.8071      	1105.8059      	1105.7937      	1105.8109      	1105.8484      	1105.7665      	1105.7953      	1105.8016      	1105.7446      	1105.8435      	1105.7848      	1105.7931      	1105.7366      	1105.8263      	1105.7606      	1105.7627      	1105.7941      	1105.7402      	1105.7717      	1105.8175      	1105.8367      	1105.7872      	1105.8528      	1105.7909      	1105.8235      	1105.8242      	1105.8107      	1105.7947      	1105.7831      	1105.7788      	1105.8029      	1105.725       	1105.7346      	1105.795       	1105.7185      	1105.7391      	1105.7587      	1105.7444      	1105.7617      	1105.77        	1105.821       	1105.7527      	1105.756       	1105.7556      	1105.7246      	1105.7893      	1105.7484      	1105.784       	1105.7264      	1105.7611      	1105.7852      	1105.7144      	1105.756       	1105.7588      	1105.751       	1105.7657      	1105.8005      	1105.8055      	1105.7853      	1105.7463      	1105.78        	1105.8091      	1105.8143      	1105.7616      	1105.7864      	1105.7759      	1105.7697      	1105.7156      	1105.7488      	1105.7366      	1105.7058      	1105.7412      	1105.6823      	1105.7257      	1105.7391      	1105.6405      	1105.6912      	1105.7097      	1105.7406      	1105.688       	1105.7018      	1105.7557      	1105.7434      	1105.7075      	1105.7313      	1105.6643      	1105.5363      	
1106.1962      	1106.0641      	1106.1243      	1106.093       	1106.1193      	1106.1495      	1106.1587      	1106.1165      	1106.2142      	1106.3998      	1106.4568      	1106.0734      	1106.043       	1106.0752      	1106.0956      	1106.0403      	1106.0872      	1105.9921      	1106.0325      	1105.9803      	1106.0381      	1105.968       	1106.0355      	1106.0154      	1106.0398      	1106.004       	1106.0376      	1106.0245      	1106.0359      	1106.0096      	1106.0527      	1106.0542      	1106.1193      	1106.0952      	1106.026       	1106.0562      	1106.0139      	1106.0698      	1106.0249      	1106.07        	1106.0403      	1106.051       	1106.0374      	1106.0696      	1106.0286      	1106.0594      	1106.029       	1106.0504      	1106.0322      	1106.0419      	1106.0232      	1106.0027      	1106.033       	1106.0096      	1106.0216      	1106.0051      	1106.0128      	1106.046       	1106.0001      	1106.0155      	1105.9999      	1106.0286      	1106.0265      	1106.0688      	1106.0007      	1105.9674      	1106.0496      	1105.9822      	1106.0352      	1106.0443      	1106.0089      	1106.1256      	1105.988       	1106.0325      	1106.0378      	1106.0243      	1106.0632      	1106.0203      	1106.012       	1106.02        	1105.9369      	1106.0272      	1105.9794      	1106.0693      	1105.9365      	1105.9434      	1105.9353      	1105.9803      	1105.8917      	1105.9197      	1105.8782      	1105.8798      	1105.8365      	1105.8882      	1105.887       	1105.9182      	1105.8567      	1105.8907      	1105.8368      	1105.7437      	
1106.2396      	1106.2507      	1106.233       	1106.2322      	1106.3064      	1106.2618      	1106.228       	1106.2693      	1106.2878      	1106.492       	1106.527       	1106.2742      	1106.2161      	1106.1956      	1106.1827      	1106.2289      	1106.172       	1106.2292      	1106.1593      	1106.211       	1106.1952      	1106.1737      	1106.1875      	1106.1753      	1106.1915      	1106.1847      	1106.1567      	1106.1803      	1106.191       	1106.1511      	1106.1914      	1106.2285      	1106.1658      	1106.1857      	1106.1837      	1106.1615      	1106.1813      	1106.2302      	1106.2131      	1106.1903      	1106.2449      	1106.2214      	1106.1526      	1106.1821      	1106.1962      	1106.1863      	1106.1713      	1106.2067      	1106.1138      	1106.1262      	1106.19        	1106.1548      	1106.1791      	1106.1738      	1106.2072      	1106.1936      	1106.179       	1106.172       	1106.1243      	1106.1816      	1106.1718      	1106.1654      	1106.164       	1106.1804      	1106.1484      	1106.1759      	1106.1687      	1106.1709      	1106.1503      	1106.2097      	1106.1427      	1106.1129      	1106.1868      	1106.1826      	1106.2001      	1106.1835      	1106.0973      	1106.167       	1106.1478      	1106.1417      	1106.2073      	1106.1342      	1106.0839      	1106.1063      	1106.1414      	1106.1038      	1106.0317      	1106.1465      	1105.9966      	1106.0995      	1106.0624      	1106.0895      	1106.0166      	1106.0515      	1106.0311      	1106.0597      	1106.0293      	1106.039       	1106.0415      	1106.0032      	
1106.2911      	1106.0864      	1106.279       	1106.2678      	1106.2681      	1106.2019      	1106.2742      	1106.3575      	1106.2665      	1106.234       	1106.5183      	1106.2449      	1106.0994      	1106.1862      	1106.1609      	1106.131       	1106.1705      	1106.1592      	1106.1656      	1106.1444      	1106.1665      	1106.2251      	1106.0958      	1106.1422      	1106.1841      	1106.1985      	1106.1791      	1106.2358      	1106.103       	1106.1666      	1106.193       	1106.2059      	1106.2401      	1106.244       	1106.2902      	1106.1731      	1106.138       	1106.1709      	1106.235       	1106.1956      	1106.1964      	1106.2687      	1106.1649      	1106.1718      	1106.2228      	1106.213       	1106.2433      	1106.2294      	1106.2618      	1106.2075      	1106.2017      	1106.3003      	1106.2527      	1106.192       	1106.2323      	1106.2653      	1106.2056      	1106.2483      	1106.2343      	1106.2369      	1106.2395      	1106.2429      	1106.2778      	1106.2854      	1106.3005      	1106.2147      	1106.2703      	1106.2671      	1106.2598      	1106.2969      	1106.2919      	1106.2971      	1106.2983      	1106.2815      	1106.2585      	1106.2505      	1106.2664      	1106.2166      	1106.2776      	1106.1614      	1106.201       	1106.2207      	1106.1827      	1106.1349      	1106.1565      	1106.1244      	1106.1548      	1106.1093      	1106.1418      	1106.06        	1106.1027      	1106.0338      	1106.0833      	1106.0841      	1106.0118      	1106.1018      	1106.0062      	1106.067       	1106.0961      	1106.0763      	
1106.42        	1106.3944      	1106.2434      	1106.4052      	1106.5128      	1106.3009      	1106.436       	1106.453       	1106.423       	1106.3987      	1106.4641      	1106.3087      	1106.3234      	1106.3118      	1106.269       	1106.2869      	1106.296       	1106.2561      	1106.3108      	1106.2585      	1106.2634      	1106.2568      	1106.2913      	1106.2202      	1106.257       	1106.2739      	1106.2444      	1106.2758      	1106.2942      	1106.288       	1106.3103      	1106.3083      	1106.3444      	1106.2969      	1106.2642      	1106.3806      	1106.2504      	1106.2855      	1106.3458      	1106.3153      	1106.3407      	1106.2545      	1106.301       	1106.3048      	1106.2943      	1106.324       	1106.2264      	1106.2805      	1106.244       	1106.2075      	1106.2567      	1106.2579      	1106.2717      	1106.2588      	1106.2423      	1106.2429      	1106.2333      	1106.2808      	1106.2173      	1106.2415      	1106.2305      	1106.2743      	1106.2675      	1106.251       	1106.2488      	1106.2931      	1106.2365      	1106.2235      	1106.287       	1106.2487      	1106.2661      	1106.2423      	1106.2683      	1106.2772      	1106.3068      	1106.192       	1106.23        	1106.2662      	1106.2231      	1106.225       	1106.241       	1106.1902      	1106.2126      	1106.1777      	1106.1855      	1106.1295      	1106.2168      	1106.1511      	1106.1571      	1106.1549      	1106.1584      	1106.1393      	1106.1521      	1106.1243      	1106.1603      	1106.1621      	1106.1401      	1106.187       	1106.2114      	1106.1483      	
1107.0016      	1107.0151      	1106.9559      	1107.0663      	1107.0327      	1107.1995      	1106.9573      	1106.8918      	1106.9291      	1106.8865      	1106.9257      	1106.9126      	1106.8691      	1106.88        	1106.8505      	1106.8733      	1106.8489      	1106.837       	1106.7982      	1106.7925      	1106.7976      	1106.8121      	1106.814       	1106.8369      	1106.8243      	1106.7765      	1106.7719      	1106.8068      	1106.7982      	1106.7893      	1106.8148      	1106.7864      	1106.8602      	1106.8293      	1106.8624      	1106.7463      	1106.8821      	1106.6742      	1106.8508      	1106.7706      	1106.7778      	1106.7808      	1106.7601      	1106.7533      	1106.7748      	1106.7507      	1106.7618      	1106.7782      	1106.735       	1106.7313      	1106.7772      	1106.7355      	1106.7656      	1106.7871      	1106.771       	1106.7449      	1106.7668      	1106.763       	1106.7701      	1106.7495      	1106.8048      	1106.7849      	1106.744       	1106.787       	1106.6841      	1106.7286      	1106.7617      	1106.7886      	1106.766       	1106.719       	1106.7501      	1106.7728      	1106.736       	1106.6952      	1106.7324      	1106.7114      	1106.6935      	1106.6633      	1106.6462      	1106.7029      	1106.6952      	1106.6538      	1106.6674      	1106.6599      	1106.6138      	1106.657       	1106.5903      	1106.6594      	1106.606       	1106.6334      	1106.6356      	1106.5779      	1106.5876      	1106.5911      	1106.5885      	1106.604       	1106.6212      	1106.6514      	1106.6193      	1106.5769      	
1107.6053      	1107.7688      	1107.6501      	1107.5247      	1107.6272      	1107.6205      	1107.5054      	1107.58        	1107.5887      	1107.5635      	1107.5399      	1107.5647      	1107.6395      	1107.4408      	1107.5411      	1107.4996      	1107.5417      	1107.503       	1107.5059      	1107.5164      	1107.5347      	1107.5045      	1107.4962      	1107.5287      	1107.4978      	1107.5193      	1107.5188      	1107.4807      	1107.6287      	1107.603       	1107.5631      	1107.5275      	1107.5642      	1107.5198      	1107.5378      	1107.5718      	1107.514       	1107.535       	1107.5037      	1107.5352      	1107.5415      	1107.496       	1107.5188      	1107.5304      	1107.5381      	1107.4927      	1107.5359      	1107.5281      	1107.4858      	1107.5056      	1107.43        	1107.5024      	1107.5452      	1107.4773      	1107.5089      	1107.4617      	1107.487       	1107.5332      	1107.5403      	1107.5104      	1107.5282      	1107.5175      	1107.4972      	1107.4752      	1107.4705      	1107.498       	1107.5215      	1107.4868      	1107.5266      	1107.5118      	1107.4833      	1107.4886      	1107.5017      	1107.4688      	1107.4421      	1107.4812      	1107.4302      	1107.4243      	1107.4132      	1107.4152      	1107.4299      	1107.347       	1107.4001      	1107.3945      	1107.4211      	1107.388       	1107.3898      	1107.3833      	1107.379       	1107.4227      	1107.3613      	1107.3572      	1107.366       	1107.381       	1107.4319      	1107.3542      	1107.428       	1107.3599      	1107.3282      	1107.3947      	
1107.6134      	1107.4692      	1107.6132      	1107.5002      	1107.5018      	1107.5024      	1107.5377      	1107.5125      	1107.493       	1107.5747      	1107.5936      	1107.5614      	1107.4636      	1107.4833      	1107.436       	1107.5073      	1107.4797      	1107.4341      	1107.4723      	1107.508       	1107.4604      	1107.4396      	1107.5016      	1107.4474      	1107.4528      	1107.4784      	1107.4768      	1107.5221      	1107.4382      	1107.4879      	1107.5243      	1107.5476      	1107.5106      	1107.5715      	1107.489       	1107.5957      	1107.4741      	1107.4884      	1107.4702      	1107.5149      	1107.489       	1107.5314      	1107.4525      	1107.462       	1107.4937      	1107.4686      	1107.5021      	1107.5059      	1107.5317      	1107.532       	1107.4973      	1107.5002      	1107.5144      	1107.5304      	1107.545       	1107.547       	1107.5392      	1107.5621      	1107.511       	1107.5372      	1107.5496      	1107.5363      	1107.5416      	1107.4987      	1107.5457      	1107.5443      	1107.526       	1107.5564      	1107.5946      	1107.551       	1107.5298      	1107.5135      	1107.5688      	1107.5337      	1107.5021      	1107.5177      	1107.4806      	1107.5593      	1107.5228      	1107.5874      	1107.4962      	1107.5211      	1107.5018      	1107.4883      	1107.5294      	1107.5397      	1107.5085      	1107.4839      	1107.573       	1107.4617      	1107.5172      	1107.483       	1107.5396      	1107.4741      	1107.5151      	1107.5135      	1107.4998      	1107.5571      	1107.4777      	1107.4781      	
1107.075       	1107.1224      	1107.1069      	1107.1399      	1107.0261      	1107.0895      	1107.0673      	1107.1139      	1107.0815      	1107.1085      	1107.0845      	1107.0815      	1107.0514      	1107.0084      	1107.0839      	1107.0419      	1107.0602      	1107.0616      	1107.0682      	1107.0585      	1107.0413      	1107.0883      	1107.0714      	1107.1257      	1107.0831      	1107.1968      	1107.1028      	1107.0945      	1107.1418      	1107.1436      	1107.1024      	1107.119       	1107.1124      	1107.1947      	1107.0898      	1107.1199      	1107.1945      	1107.1364      	1107.1686      	1107.1664      	1107.1786      	1107.1404      	1107.117       	1107.1526      	1107.1437      	1107.077       	1107.1172      	1107.1606      	1107.1499      	1107.1525      	1107.159       	1107.1602      	1107.204       	1107.1224      	1107.1307      	1107.2333      	1107.1777      	1107.1748      	1107.1753      	1107.194       	1107.1556      	1107.192       	1107.1404      	1107.2068      	1107.1979      	1107.189       	1107.1633      	1107.1589      	1107.1877      	1107.1453      	1107.1564      	1107.1516      	1107.1759      	1107.1711      	1107.126       	1107.2258      	1107.1628      	1107.1146      	1107.1508      	1107.1296      	1107.1473      	1107.1282      	1107.1174      	1107.1262      	1107.148       	1107.1229      	1107.1652      	1107.103       	1107.1398      	1107.1294      	1107.173       	1107.1372      	1107.1655      	1107.17        	1107.1694      	1107.1681      	1107.156       	1107.1866      	1107.2146      	1107.0968      	
1106.6343      	1106.6266      	1106.7089      	1106.6349      	1106.6421      	1106.6769      	1106.619       	1106.6211      	1106.6694      	1106.6356      	1106.6467      	1106.6385      	1106.6697      	1106.5421      	1106.7117      	1106.5834      	1106.6764      	1106.6208      	1106.6036      	1106.6824      	1106.6663      	1106.7104      	1106.6423      	1106.6818      	1106.6903      	1106.6818      	1106.7079      	1106.6869      	1106.6975      	1106.6917      	1106.7235      	1106.7306      	1106.7001      	1106.7267      	1106.725       	1106.7684      	1106.7201      	1106.7039      	1106.6472      	1106.7296      	1106.7578      	1106.6752      	1106.8127      	1106.6042      	1106.6393      	1106.779       	1106.7693      	1106.731       	1106.7476      	1106.7273      	1106.7571      	1106.7959      	1106.7958      	1106.7804      	1106.761       	1106.7928      	1106.7618      	1106.7753      	1106.7858      	1106.8337      	1106.8         	1106.7893      	1106.8584      	1106.7795      	1106.7963      	1106.8118      	1106.7828      	1106.8052      	1106.7811      	1106.7916      	1106.7649      	1106.7826      	1106.7775      	1106.8247      	1106.8163      	1106.8011      	1106.7983      	1106.8097      	1106.7783      	1106.7599      	1106.8167      	1106.7404      	1106.7579      	1106.7833      	1106.7476      	1106.8508      	1106.7302      	1106.8033      	1106.7634      	1106.7544      	1106.8256      	1106.7747      	1106.8319      	1106.7909      	1106.7859      	1106.8273      	1106.8342      	1106.8739      	1106.407       	1106.094       	
1106.201       	1106.2206      	1106.1896      	1106.2188      	1106.2039      	1106.1738      	1106.213       	1106.1682      	1106.1962      	1106.2299      	1106.1858      	1106.1965      	1106.1794      	1106.1654      	1106.197       	1106.1355      	1106.1584      	1106.1727      	1106.1338      	1106.1698      	1106.1847      	1106.1837      	1106.1428      	1106.1688      	1106.17        	1106.1847      	1106.0966      	1106.1489      	1106.1488      	1106.1625      	1106.1274      	1106.1626      	1106.1658      	1106.1522      	1106.1345      	1106.1493      	1106.1486      	1106.2024      	1106.0623      	1106.2698      	1106.0363      	1106.1053      	1106.2218      	1106.0465      	1106.0839      	1106.2677      	1106.102       	1106.1259      	1106.1676      	1106.1206      	1106.2013      	1106.2249      	1106.2251      	1106.206       	1106.153       	1106.1389      	1106.1802      	1106.1971      	1106.1938      	1106.1499      	1106.2332      	1106.1852      	1106.2102      	1106.1654      	1106.196       	1106.2231      	1106.2267      	1106.222       	1106.2352      	1106.2542      	1106.1931      	1106.2362      	1106.2781      	1106.2521      	1106.2478      	1106.3062      	1106.238       	1106.2013      	1106.2495      	1106.2144      	1106.1954      	1106.2472      	1106.228       	1106.2395      	1106.2633      	1106.2433      	1106.2933      	1106.2892      	1106.2081      	1106.2622      	1106.306       	1106.2007      	1106.254       	1106.3407      	1106.3065      	1106.2948      	1106.3849      	1106.047       	1105.5833      	1105.5397      	
1106.0813      	1106.0781      	1106.1124      	1106.073       	1106.0782      	1106.0664      	1106.0935      	1106.1165      	1106.0186      	1106.0613      	1106.0924      	1106.0382      	1106.0457      	1106.1066      	1106.0161      	1106.0819      	1106.1486      	1106.0104      	1106.0831      	1106.0143      	1106.0116      	1106.0481      	1105.994       	1105.9901      	1106.0691      	1106.0126      	1106.0503      	1106.0864      	1106.0206      	1106.0515      	1106.0519      	1106.0563      	1105.993       	1106.0469      	1106.057       	1106.0271      	1106.0436      	1106.0604      	1105.9661      	1106.0165      	1106.0312      	1105.9911      	1106.0488      	1105.9917      	1105.9985      	1106.0085      	1106.0138      	1106.0076      	1105.9937      	1106.0653      	1106.0215      	1106.01        	1106.1152      	1106.0085      	1106.0408      	1106.0585      	1106.0927      	1106.069       	1106.0602      	1106.0431      	1106.045       	1105.991       	1106.0619      	1106.0299      	1106.0797      	1106.0435      	1106.0205      	1105.9791      	1106.0565      	1106.0419      	1106.0106      	1106.0756      	1106.0114      	1105.9991      	1106.0513      	1105.9064      	1105.9882      	1105.9609      	1106.04        	1105.9143      	1105.9973      	1106.0337      	1106.0145      	1105.9803      	1105.9696      	1106.0339      	1105.9639      	1106.0009      	1106.0054      	1106.0364      	1106.0013      	1106.0266      	1106.0099      	1106.12        	1106.021       	1106.052       	1106.1587      	1105.8069      	1105.404       	1105.411       	
1106.2775      	1106.2032      	1106.327       	1106.2222      	1106.1794      	1106.255       	1106.1725      	1106.2485      	1106.1788      	1106.2         	1106.2169      	1106.1929      	1106.2078      	1106.2218      	1106.1476      	1106.1455      	1106.1835      	1106.1337      	1106.1925      	1106.1633      	1106.1876      	1106.1112      	1106.227       	1106.1741      	1106.2239      	1106.1764      	1106.1782      	1106.1704      	1106.2255      	1106.196       	1106.1586      	1106.1406      	1106.177       	1106.1146      	1106.1868      	1106.1915      	1106.1764      	1106.1816      	1106.1096      	1106.1134      	1106.115       	1106.1228      	1106.089       	1106.147       	1106.0964      	1106.086       	1106.1361      	1106.1367      	1106.1265      	1106.1251      	1106.0906      	1106.1449      	1106.0695      	1106.1566      	1106.1681      	1106.1332      	1106.1656      	1106.1531      	1106.1857      	1106.0862      	1106.1436      	1106.1517      	1106.0939      	1106.1174      	1106.1165      	1106.1329      	1106.0892      	1106.0696      	1106.0975      	1106.0933      	1106.0906      	1106.045       	1106.0646      	1106.0603      	1106.0516      	1106.0624      	1106.0933      	1106.0548      	1106.0579      	1106.1083      	1106.1176      	1106.0282      	1106.0483      	1105.9935      	1106.0001      	1106.0703      	1105.9912      	1106.0151      	1106.0673      	1106.0082      	1106.0797      	1106.066       	1106.0724      	1106.0812      	1106.0604      	1106.0896      	1106.1427      	1105.9188      	1105.5269      	1105.3379      	
1106.7252      	1106.7196      	1106.6711      	1106.6736      	1106.6497      	1106.6788      	1106.6401      	1106.6215      	1106.6235      	1106.6333      	1106.6326      	1106.6732      	1106.5349      	1106.6415      	1106.5913      	1106.5566      	1106.5929      	1106.5569      	1106.5103      	1106.5842      	1106.5253      	1106.5613      	1106.5471      	1106.559       	1106.5935      	1106.545       	1106.573       	1106.574       	1106.5955      	1106.5186      	1106.5425      	1106.6002      	1106.5425      	1106.5516      	1106.5392      	1106.5481      	1106.524       	1106.5177      	1106.4819      	1106.425       	1106.4629      	1106.5087      	1106.4507      	1106.5024      	1106.4685      	1106.5292      	1106.5287      	1106.4634      	1106.4999      	1106.5239      	1106.4453      	1106.5181      	1106.4365      	1106.5115      	1106.4824      	1106.4973      	1106.47        	1106.4894      	1106.4934      	1106.4818      	1106.398       	1106.4835      	1106.512       	1106.4236      	1106.4396      	1106.4597      	1106.4575      	1106.4589      	1106.3523      	1106.4655      	1106.4817      	1106.3286      	1106.3619      	1106.4323      	1106.4589      	1106.4086      	1106.4034      	1106.4266      	1106.3527      	1106.4188      	1106.3645      	1106.357       	1106.3995      	1106.3866      	1106.463       	1106.3865      	1106.3698      	1106.3838      	1106.3737      	1106.4279      	1106.4081      	1106.3975      	1106.4417      	1106.3893      	1106.4537      	1106.4868      	1106.457       	1106.324       	1105.9102      	1105.7322      	
1107.0128      	1107.0465      	1107.0416      	1106.9854      	1106.9993      	1107.0118      	1107.007       	1107.0017      	1106.9254      	1107.0295      	1107.0823      	1106.9095      	1106.9978      	1107.0312      	1106.9705      	1106.9884      	1107.0059      	1107.017       	1106.9744      	1107.0068      	1107.0217      	1107.0676      	1107.0006      	1107.0492      	1107.0247      	1107.0187      	1107.0137      	1107.0107      	1107.0175      	1107           	1107.0529      	1107.004       	1107.0243      	1106.9845      	1107.0125      	1107.0227      	1107.0342      	1107.0211      	1106.9596      	1107.0155      	1106.9506      	1107.0311      	1107.0242      	1106.9608      	1106.96        	1106.9657      	1107.081       	1106.8507      	1106.8905      	1107.0354      	1106.9844      	1106.9358      	1106.9589      	1107.0111      	1106.9794      	1107.011       	1106.9916      	1106.978       	1106.9769      	1106.9192      	1106.9523      	1106.9203      	1106.9849      	1106.9729      	1106.9745      	1106.9169      	1106.9169      	1106.8745      	1106.8596      	1106.8326      	1106.8868      	1106.8973      	1106.8531      	1106.8876      	1106.8806      	1106.895       	1106.8448      	1106.8579      	1106.8723      	1106.8217      	1106.8401      	1106.8373      	1106.8439      	1106.8566      	1106.8497      	1106.8483      	1106.8433      	1106.8231      	1106.8392      	1106.8523      	1106.7896      	1106.844       	1106.8689      	1106.854       	1106.8601      	1106.8495      	1106.923       	1106.8582      	1106.399       	1106.227       	
1106.9261      	1106.9407      	1106.9398      	1106.9253      	1106.921       	1106.9384      	1106.8934      	1106.9495      	1106.8723      	1106.9106      	1106.9302      	1106.9552      	1106.9163      	1106.9159      	1106.9458      	1106.94        	1106.9584      	1106.9823      	1106.955       	1106.9722      	1106.9513      	1106.9683      	1106.9407      	1106.9384      	1106.9888      	1106.9868      	1106.9794      	1106.9595      	1106.9961      	1106.9675      	1106.9484      	1106.961       	1106.9764      	1106.9723      	1106.9814      	1106.9703      	1106.9972      	1106.9943      	1106.9546      	1106.9683      	1106.9749      	1106.9823      	1107.0225      	1107.047       	1107.0502      	1107.0103      	1106.9901      	1106.9982      	1107.0382      	1107.013       	1107.0249      	1107.0747      	1107.0101      	1107.031       	1107.0724      	1107.0557      	1107.0688      	1107.054       	1107.0302      	1106.9976      	1106.9922      	1107.0087      	1106.9617      	1107           	1106.9928      	1107.0024      	1106.9673      	1107.0038      	1107.0243      	1107.0719      	1106.7974      	1106.5588      	1106.7922      	1106.9668      	1107.0421      	1107.0197      	1106.8644      	1106.9296      	1107.0431      	1107.0116      	1107.0011      	1107.0493      	1106.992       	1107.037       	1107.0353      	1106.9244      	1106.9777      	1106.9929      	1107.0243      	1107.045       	1107.0022      	1107.0057      	1107.0022      	1107.0227      	1107.0295      	1107.0894      	1107.0872      	1107.1786      	1106.638       	1106.4526      	
1106.6045      	1106.5587      	1106.5903      	1106.6202      	1106.5348      	1106.5934      	1106.5668      	1106.6119      	1106.537       	1106.574       	1106.5642      	1106.5778      	1106.5623      	1106.5927      	1106.5981      	1106.638       	1106.5576      	1106.6079      	1106.5946      	1106.6368      	1106.5786      	1106.6146      	1106.6373      	1106.6241      	1106.5637      	1106.676       	1106.6565      	1106.619       	1106.678       	1106.6532      	1106.6138      	1106.6979      	1106.7896      	1106.6561      	1106.6973      	1106.6444      	1106.6412      	1106.6477      	1106.6348      	1106.6501      	1106.6106      	1106.5729      	1106.5995      	1106.6226      	1106.608       	1106.6335      	1106.5953      	1106.6365      	1106.6388      	1106.6229      	1106.6558      	1106.6417      	1106.69        	1106.6647      	1106.6655      	1106.6665      	1106.6066      	1106.674       	1106.6533      	1106.6392      	1106.6785      	1106.6454      	1106.6533      	1106.6306      	1106.7491      	1106.209       	1106.4348      	1106.7305      	1106.4124      	1106.4635      	1106.6475      	1106.4474      	1106.5044      	1106.615       	1106.5586      	1106.7233      	1106.8479      	1107.1221      	1106.648       	1106.5626      	1106.6272      	1106.5913      	1106.6174      	1106.576       	1106.6274      	1106.6486      	1106.5891      	1106.6002      	1106.6261      	1106.601       	1106.6184      	1106.5894      	1106.6542      	1106.6245      	1106.697       	1106.702       	1106.7112      	1106.8262      	1106.5542      	1106.2062      	
1106.492       	1106.3341      	1106.3843      	1106.4061      	1106.3738      	1106.3699      	1106.3718      	1106.365       	1106.3533      	1106.3662      	1106.4099      	1106.3495      	1106.4329      	1106.3693      	1106.3816      	1106.3971      	1106.3956      	1106.3616      	1106.4292      	1106.4403      	1106.3495      	1106.4308      	1106.3875      	1106.4714      	1106.3989      	1106.4285      	1106.4364      	1106.4214      	1106.3527      	1106.4525      	1106.4203      	1106.3853      	1106.4545      	1106.4012      	1106.4053      	1106.4507      	1106.3658      	1106.3507      	1106.4523      	1106.3417      	1106.4343      	1106.3185      	1106.4236      	1106.4314      	1106.4323      	1106.3479      	1106.4341      	1106.4755      	1106.3958      	1106.4038      	1106.3827      	1106.4689      	1106.4542      	1106.3624      	1106.4218      	1106.4874      	1106.4288      	1106.5321      	1106.4         	1106.439       	1106.3867      	1106.6172      	1106.122       	1106.2751      	1106.1779      	1106.183       	1106.3223      	1106.384       	1106.3009      	1106.4354      	1106.3689      	1106.3701      	1106.4581      	1106.2817      	1106.4276      	1106.4305      	1106.508       	1107.0616      	1106.6202      	1106.3848      	1106.3917      	1106.3757      	1106.4419      	1106.3527      	1106.4253      	1106.3984      	1106.4181      	1106.3574      	1106.4167      	1106.4315      	1106.4471      	1106.4458      	1106.455       	1106.4724      	1106.48        	1106.4443      	1106.5352      	1106.591       	1106.4205      	1106.1481      	
1106.3512      	1106.2769      	1106.2855      	1106.2883      	1106.2502      	1106.2542      	1106.2299      	1106.1917      	1106.2382      	1106.2708      	1106.2043      	1106.2979      	1106.2566      	1106.3035      	1106.2361      	1106.3375      	1106.1886      	1106.3145      	1106.2417      	1106.2875      	1106.2878      	1106.2968      	1106.2941      	1106.3153      	1106.2716      	1106.2849      	1106.3458      	1106.3113      	1106.2563      	1106.2756      	1106.3596      	1106.2781      	1106.3274      	1106.2654      	1106.2076      	1106.3059      	1106.3566      	1106.2921      	1106.3137      	1106.2703      	1106.3026      	1106.27        	1106.2727      	1106.2993      	1106.2812      	1106.3268      	1106.2753      	1106.2848      	1106.3058      	1106.3202      	1106.1954      	1106.2871      	1106.3082      	1106.3634      	1106.2905      	1106.3977      	1106.1687      	1106.2599      	1105.8859      	1106.1013      	1106.3247      	1106.084       	1106.1586      	1106.1484      	1106.2502      	1106.2432      	1106.2455      	1106.3239      	1106.2479      	1106.2657      	1106.3082      	1106.1934      	1106.3137      	1106.1492      	1106.3391      	1106.2734      	1106.3811      	1106.6901      	1106.566       	1106.19        	1106.2522      	1106.2461      	1106.2389      	1106.2354      	1106.2316      	1106.2772      	1106.299       	1106.2245      	1106.2361      	1106.2661      	1106.2854      	1106.2639      	1106.3286      	1106.2832      	1106.3165      	1106.3253      	1106.3427      	1106.3533      	1106.3356      	1106.2295      	
1106.3118      	1106.3435      	1106.3287      	1106.305       	1106.3485      	1106.3107      	1106.3191      	1106.3181      	1106.3058      	1106.2877      	1106.382       	1106.4265      	1106.3295      	1106.4194      	1106.3105      	1106.3561      	1106.4305      	1106.2731      	1106.3695      	1106.3821      	1106.3251      	1106.3575      	1106.3239      	1106.321       	1106.3618      	1106.2799      	1106.3726      	1106.342       	1106.4445      	1106.2317      	1106.3663      	1106.3136      	1106.3685      	1106.271       	1106.2909      	1106.4683      	1106.356       	1106.3016      	1106.3302      	1106.3275      	1106.267       	1106.3306      	1106.332       	1106.2694      	1106.3615      	1106.3392      	1106.2815      	1106.379       	1106.3914      	1106.3665      	1106.3593      	1106.4497      	1106.2201      	1106.1053      	1106.3943      	1106.0927      	1106.1671      	1106.4086      	1106.2244      	1106.2444      	1106.3307      	1106.253       	1106.3557      	1106.3286      	1106.2673      	1106.3127      	1106.2946      	1106.3093      	1106.3005      	1106.2971      	1106.3484      	1106.3108      	1106.2844      	1106.3104      	1106.2549      	1106.3639      	1106.218       	1106.4744      	1106.7389      	1106.3573      	1106.2915      	1106.335       	1106.1724      	1106.2927      	1106.3108      	1106.3612      	1106.2721      	1106.3204      	1106.2535      	1106.2703      	1106.2261      	1106.4171      	1106.271       	1106.3195      	1106.3381      	1106.3116      	1106.3674      	1106.3427      	1106.3613      	1106.3342      	
1106.51        	1106.5349      	1106.525       	1106.5573      	1106.5085      	1106.5677      	1106.4896      	1106.554       	1106.4807      	1106.5372      	1106.5315      	1106.5369      	1106.5792      	1106.5929      	1106.5905      	1106.6042      	1106.5642      	1106.5552      	1106.5708      	1106.548       	1106.6583      	1106.5635      	1106.5748      	1106.5886      	1106.5597      	1106.3937      	1106.4469      	1106.5571      	1106.5641      	1106.5085      	1106.5367      	1106.4922      	1106.544       	1106.5243      	1106.4647      	1106.5452      	1106.5342      	1106.5155      	1106.5311      	1106.592       	1106.491       	1106.4614      	1106.5115      	1106.5076      	1106.5491      	1106.543       	1106.5157      	1106.5911      	1106.4869      	1106.4274      	1106.2424      	1106.3287      	1106.4154      	1106.4421      	1106.5671      	1106.424       	1106.495       	1106.5536      	1106.5344      	1106.5221      	1106.4827      	1106.4746      	1106.4846      	1106.5005      	1106.4714      	1106.4966      	1106.4971      	1106.4976      	1106.5349      	1106.5098      	1106.4752      	1106.6035      	1106.3644      	1106.5139      	1106.5194      	1106.5912      	1106.6423      	1106.551       	1106.8411      	1106.7107      	1106.4797      	1106.4882      	1106.4453      	1106.445       	1106.4387      	1106.483       	1106.4784      	1106.5502      	1106.519       	1106.4901      	1106.4783      	1106.533       	1106.5012      	1106.5022      	1106.5657      	1106.5734      	1106.567       	1106.3914      	1106.3497      	1106.5083      	
1106.7891      	1106.7655      	1106.7504      	1106.7797      	1106.8197      	1106.7762      	1106.7971      	1106.7963      	1106.786       	1106.743       	1106.7932      	1106.8563      	1106.8286      	1106.8351      	1106.8406      	1106.8687      	1106.7617      	1106.7837      	1106.8582      	1106.7435      	1106.948       	1106.8141      	1106.8304      	1106.8147      	1106.7845      	1106.824       	1106.8413      	1106.7544      	1106.8013      	1106.7788      	1106.7571      	1106.7909      	1106.8287      	1106.745       	1106.785       	1106.7605      	1106.7887      	1106.7512      	1106.813       	1106.781       	1106.8257      	1106.661       	1106.7632      	1106.8732      	1106.6072      	1106.2937      	1106.6643      	1106.8784      	1106.6765      	1106.7886      	1106.6571      	1106.7754      	1106.7511      	1106.8052      	1106.8005      	1106.7126      	1106.8274      	1106.7263      	1106.7877      	1106.755       	1106.7865      	1106.7491      	1106.784       	1106.7064      	1106.8395      	1106.6183      	1106.7585      	1106.7726      	1106.7462      	1106.7368      	1106.9087      	1106.544       	1106.6646      	1106.81        	1106.6688      	1106.7585      	1106.8038      	1106.863       	1106.966       	1107.01        	1106.6749      	1106.737       	1106.7239      	1106.6527      	1106.7856      	1106.6958      	1106.6986      	1106.6392      	1106.7671      	1106.7201      	1106.7377      	1106.8134      	1106.7958      	1106.7161      	1106.7473      	1106.8136      	1106.7999      	1106.76        	1106.7766      	1106.7684      	
1106.7994      	1106.87        	1106.7587      	1106.7839      	1106.7742      	1106.7874      	1106.7559      	1106.7971      	1106.8147      	1106.812       	1106.8069      	1106.8535      	1106.8151      	1106.8296      	1106.8079      	1106.8232      	1106.7957      	1106.8202      	1106.7916      	1106.8721      	1106.7615      	1106.7915      	1106.7821      	1106.8248      	1106.8113      	1106.779       	1106.808       	1106.7716      	1106.8411      	1106.7673      	1106.8062      	1106.7616      	1106.7878      	1106.845       	1106.814       	1106.7655      	1106.7805      	1106.8026      	1106.7673      	1106.7854      	1106.974       	1106.271       	1106.4825      	1106.7301      	1106.7238      	1106.678       	1106.7827      	1106.846       	1106.8339      	1106.8638      	1106.8218      	1106.7772      	1106.8055      	1106.8563      	1106.7831      	1106.8269      	1106.7631      	1106.7721      	1106.8009      	1106.7513      	1106.7244      	1106.8087      	1106.7408      	1106.766       	1106.7538      	1106.8115      	1106.7512      	1106.763       	1106.782       	1106.7921      	1106.7832      	1106.714       	1106.8169      	1106.8142      	1106.719       	1106.8169      	1106.7056      	1106.8761      	1107.1184      	1107.1195      	1106.746       	1106.6913      	1106.7924      	1106.8472      	1106.696       	1106.7258      	1106.8236      	1106.7922      	1106.7925      	1106.8837      	1106.7806      	1106.8589      	1106.8518      	1106.8655      	1106.8661      	1106.8683      	1106.8257      	1106.8661      	1106.7756      	1106.7969      	
1107.1466      	1107.1119      	1107.0968      	1107.0933      	1107.1537      	1107.1083      	1107.1481      	1107.119       	1107.1653      	1107.1583      	1107.1519      	1107.1455      	1107.1626      	1107.203       	1107.1519      	1107.1714      	1107.1648      	1107.1405      	1107.1677      	1107.1527      	1107.1829      	1107.1238      	1107.1696      	1107.1211      	1107.1154      	1107.1069      	1107.1194      	1107.076       	1107.1349      	1107.0764      	1107.1398      	1107.0376      	1107.0919      	1107.0664      	1107.1146      	1107.0325      	1107.0883      	1107.0718      	1107.1094      	1107.0923      	1106.6493      	1106.738       	1106.9137      	1107.0477      	1107.1614      	1107.1218      	1107.1284      	1107.1167      	1107.1011      	1107.1467      	1107.0773      	1107.0957      	1107.1067      	1107.0729      	1107.1033      	1107.0769      	1107.0951      	1107.0656      	1107.0994      	1107.0447      	1107.0398      	1107.0466      	1107.0626      	1106.9976      	1107.063       	1107.048       	1107.0468      	1107.0981      	1107.0736      	1106.9908      	1107.0438      	1106.9438      	1107.0995      	1107.0292      	1106.992       	1107.038       	1107.0378      	1107.0687      	1107.3381      	1107.3829      	1107.0128      	1106.9764      	1107.0256      	1107.0709      	1106.9904      	1107.0425      	1107.0118      	1107.0614      	1107.0751      	1107.0728      	1107.0278      	1107.0659      	1107.0823      	1107.0853      	1107.0698      	1107.0916      	1107.1411      	1107.0481      	1106.9327      	1106.967       	
1107.2904      	1107.2561      	1107.2556      	1107.3602      	1107.2245      	1107.2434      	1107.2545      	1107.2825      	1107.2833      	1107.2881      	1107.3116      	1107.3041      	1107.3286      	1107.3633      	1107.246       	1107.4587      	1107.2225      	1107.2622      	1107.3444      	1107.3809      	1107.3373      	1107.3331      	1107.3469      	1107.3132      	1107.3127      	1107.3328      	1107.2919      	1107.2606      	1107.3341      	1107.2897      	1107.3086      	1107.286       	1107.2352      	1107.2642      	1107.3165      	1107.3047      	1107.2839      	1107.2869      	1107.4502      	1106.8217      	1106.9916      	1107.0901      	1107.206       	1107.4155      	1107.2684      	1107.4185      	1107.2445      	1107.2623      	1107.3435      	1107.2937      	1107.3125      	1107.2179      	1107.2798      	1107.2799      	1107.2102      	1107.3481      	1107.2792      	1107.3184      	1107.1582      	1107.3138      	1107.1652      	1107.2665      	1107.2651      	1107.2329      	1107.2668      	1107.244       	1107.231       	1107.2114      	1107.2914      	1107.2441      	1107.3021      	1107.156       	1107.273       	1107.269       	1107.213       	1107.296       	1107.3889      	1107.3009      	1107.4954      	1107.5687      	1107.2306      	1107.2365      	1107.2191      	1107.2493      	1107.2894      	1107.3129      	1107.3622      	1107.3065      	1107.3292      	1107.2974      	1107.3527      	1107.307       	1107.3407      	1107.3677      	1107.3677      	1107.3552      	1107.4231      	1107.2799      	1107.1993      	1107.1765      	
1107.4487      	1107.3983      	1107.3947      	1107.4292      	1107.3794      	1107.4318      	1107.383       	1107.4575      	1107.3872      	1107.3784      	1107.473       	1107.3983      	1107.4904      	1107.4003      	1107.6271      	1107.3093      	1107.2627      	1107.522       	1107.5022      	1107.375       	1107.4375      	1107.3943      	1107.453       	1107.3899      	1107.428       	1107.4425      	1107.4265      	1107.3987      	1107.4349      	1107.3665      	1107.4689      	1107.3804      	1107.3671      	1107.4259      	1107.5001      	1107.3186      	1107.3846      	1107.3862      	1107.6196      	1106.995       	1107.1516      	1107.2327      	1107.2472      	1107.4368      	1107.51        	1107.439       	1107.5452      	1107.4248      	1107.4541      	1107.4338      	1107.4371      	1107.4753      	1107.3967      	1107.4412      	1107.3801      	1107.4543      	1107.4904      	1107.424       	1107.3569      	1107.3849      	1107.4161      	1107.339       	1107.4479      	1107.3472      	1107.3859      	1107.3937      	1107.3636      	1107.3813      	1107.4249      	1107.3611      	1107.4421      	1107.4502      	1107.3954      	1107.3804      	1107.4055      	1107.3236      	1107.5941      	1107.5037      	1107.5378      	1107.8386      	1107.6132      	1107.4115      	1107.4136      	1107.43        	1107.3901      	1107.4081      	1107.4594      	1107.4025      	1107.4495      	1107.4766      	1107.4551      	1107.4792      	1107.4348      	1107.4902      	1107.471       	1107.4662      	1107.4365      	1107.4622      	1107.4491      	1107.4401      	
1107.6147      	1107.6218      	1107.6492      	1107.6187      	1107.6454      	1107.6002      	1107.6697      	1107.6466      	1107.6732      	1107.6602      	1107.6968      	1107.694       	1107.6431      	1107.6812      	1107.6481      	1107.6733      	1107.6534      	1107.6511      	1107.68        	1107.638       	1107.7032      	1107.633       	1107.6372      	1107.6926      	1107.6306      	1107.6309      	1107.6449      	1107.6641      	1107.645       	1107.5874      	1107.5796      	1107.5691      	1107.5863      	1107.5872      	1107.6235      	1107.5713      	1107.5791      	1107.6493      	1107.7394      	1107.3517      	1107.2725      	1107.4601      	1107.5249      	1107.4836      	1107.6954      	1107.7179      	1107.679       	1107.6844      	1107.7261      	1107.6091      	1107.7235      	1107.6835      	1107.6919      	1107.5504      	1107.5216      	1107.565       	1107.7043      	1107.6335      	1107.5759      	1107.5878      	1107.6198      	1107.5969      	1107.6096      	1107.6598      	1107.5387      	1107.5225      	1107.6027      	1107.6257      	1107.6642      	1107.5826      	1107.633       	1107.6163      	1107.6958      	1107.6478      	1107.6016      	1107.6366      	1107.6061      	1107.787       	1107.7112      	1108.0732      	1107.9622      	1107.5441      	1107.6544      	1107.7246      	1107.6624      	1107.6907      	1107.6685      	1107.6805      	1107.6754      	1107.6571      	1107.6649      	1107.7043      	1107.6548      	1107.7104      	1107.6602      	1107.6992      	1107.6875      	1107.553       	1107.5154      	1107.5682      	
1107.7937      	1107.7893      	1107.8176      	1107.7527      	1107.7633      	1107.8317      	1107.8302      	1107.7971      	1107.7913      	1107.8331      	1107.7563      	1107.8282      	1107.8228      	1107.8762      	1107.8503      	1107.8273      	1107.8273      	1107.7928      	1107.8033      	1107.8419      	1107.7747      	1107.794       	1107.7998      	1107.7844      	1107.758       	1107.7584      	1107.6945      	1107.8038      	1107.7374      	1107.782       	1107.7571      	1107.8263      	1107.6993      	1107.7778      	1107.765       	1107.7838      	1107.8079      	1107.8         	1107.8312      	1107.8638      	1107.4597      	1107.5194      	1107.65        	1107.5659      	1107.8254      	1107.8436      	1107.8673      	1107.8849      	1107.8726      	1107.8269      	1107.8103      	1107.7804      	1107.7507      	1107.7906      	1107.7937      	1107.7902      	1107.7266      	1107.7759      	1107.7544      	1107.7684      	1107.7552      	1107.759       	1107.7996      	1107.7825      	1107.6788      	1107.6385      	1107.8802      	1107.7515      	1107.7395      	1107.796       	1107.7284      	1107.7208      	1107.6993      	1107.7415      	1107.7806      	1107.8123      	1107.7626      	1107.802       	1107.846       	1108.1018      	1108.131       	1107.8224      	1107.8015      	1107.7722      	1107.7944      	1107.7994      	1107.8254      	1107.8992      	1107.7155      	1107.8054      	1107.8562      	1107.8268      	1107.8346      	1107.8641      	1107.8046      	1107.8208      	1107.9016      	1107.8153      	1107.7222      	1107.7797      	
1107.7577      	1107.7609      	1107.7625      	1107.7875      	1107.7114      	1107.7664      	1107.7285      	1107.7604      	1107.772       	1107.7849      	1107.7595      	1107.7585      	1107.7205      	1107.7864      	1107.8135      	1107.7498      	1107.7352      	1107.7639      	1107.7688      	1107.805       	1107.9116      	1107.6602      	1107.7437      	1107.802       	1107.7291      	1107.8143      	1107.7552      	1107.8489      	1107.6979      	1107.7911      	1107.7163      	1107.7979      	1107.7609      	1107.7622      	1107.7476      	1107.765       	1107.8113      	1107.7775      	1107.8654      	1107.9003      	1107.3811      	1107.6497      	1107.6115      	1107.712       	1107.6952      	1107.9064      	1107.8634      	1107.8364      	1107.8276      	1107.8212      	1107.823       	1107.782       	1107.843       	1107.8436      	1107.7579      	1107.8481      	1107.8439      	1107.6335      	1107.7778      	1107.6959      	1107.6948      	1107.8256      	1107.7719      	1107.8499      	1107.6849      	1107.7919      	1107.7505      	1107.7603      	1107.7173      	1107.8016      	1107.7522      	1107.7072      	1107.7893      	1107.7927      	1107.7157      	1107.7737      	1107.7988      	1107.8143      	1107.8595      	1107.9982      	1108.2391      	1107.9114      	1107.853       	1107.754       	1107.8132      	1107.8501      	1107.7473      	1107.8066      	1107.8079      	1107.7896      	1107.7263      	1107.8508      	1107.7965      	1107.7828      	1107.8202      	1107.8325      	1107.8667      	1107.7872      	1107.61        	1107.6134      	
