# www.neaspec.com
# Scan:	 	AFM
# Project:	 	20251007_PS
# Description:	 	
# Date:	 	10/07/2025 13:24:33
# Scanner Center Position (X, Y):	[µm]	49.99	50.01	 
# Rotation:	[°]	0	 	 
# Scan Area (X, Y, Z):	[µm]	5.000	5.000	0.000
# Pixel Area (X, Y, Z):	[px]	100	100	1
# Averaging:	 	1	 	 
# Integration time:	[ms]	5	 	 
# Laser Source:	 	4.5-15 µm nano-FTIR laser
# Detector:	 	R
# Target Wavelength:	[µm]	7.502	 	 
# Demodulation Mode:	 	Fourier
# Tip Frequency:	[Hz]	241,340.500	 	 
# Tip Amplitude:	[mV]	45.700	 	 
# Tapping Amplitude:	[nm]	76.314	 	 
# Modulation Frequency:	[Hz]	0.000	 	 
# Modulation Amplitude:	[mV]	0.000	 	 
# Modulation Offset:	[mV]	0.000	 	 
# Setpoint:	[%]	79.75	 	 
# Regulator (P, I, D):	 	4.206850	8.625812	1.000000
# Tip Potential:	[mV]	0.000	 	 
# M1A Scaling:	[nm/V]	0.426	 	 
# M1A Cantilever Factor:	 	1,000	 	 
# Q-Factor:	 	487.4	 	 
# Version:	 	2.1.11536.0
63.553974      	63.448612      	63.20714       	63.384007      	63.708916      	63.753796      	63.525208      	63.739265      	63.67817       	59.25837       	55.90707       	55.463448      	55.914326      	56.06479       	55.939095      	56.214676      	56.020298      	56.541267      	56.388435      	56.579197      	56.768333      	56.899773      	56.945393      	57.01796       	57.594208      	57.490627      	57.34896       	57.4688        	57.39648       	57.172832      	57.34397       	57.50837       	57.203064      	57.278656      	57.21093       	57.405205      	57.14774       	57.32505       	57.51469       	57.221897      	57.35062       	57.46309       	57.62146       	59.993355      	57.811256      	58.084858      	58.571022      	57.716366      	57.975723      	57.28536       	57.383286      	57.209248      	57.40658       	56.853268      	56.828186      	57.986217      	59.582417      	62.777885      	64.93803       	62.848896      	63.567883      	63.52256       	63.538322      	63.5266        	63.624325      	63.441566      	63.45269       	63.283432      	63.370316      	63.692814      	63.786674      	63.342968      	63.29796       	63.369995      	62.97804       	63.14106       	63.22559       	63.135277      	63.282433      	62.941143      	63.20545       	63.340702      	63.392277      	63.49167       	63.192036      	63.52567       	63.417328      	63.519157      	63.12475       	63.811554      	63.832542      	63.745728      	63.63196       	63.224976      	64.122665      	63.97272       	63.87881       	63.484043      	63.666103      	64.07937       	
63.79795       	63.463585      	63.3084        	63.743927      	63.611473      	63.497833      	63.50109       	63.825222      	63.62553       	60.760765      	55.66899       	56.090107      	56.277836      	56.01202       	56.0046        	56.10119       	56.07454       	56.499863      	56.227177      	56.578747      	56.664806      	56.791058      	56.989513      	57.30218       	57.4693        	57.616257      	57.590836      	57.443897      	57.678513      	57.68763       	57.43173       	57.50426       	57.757763      	57.146152      	57.47185       	57.3541        	57.63031       	57.489407      	57.62511       	57.40231       	57.10668       	57.53984       	57.506943      	58.96589       	58.51643       	57.60253       	58.14364       	57.838684      	57.116917      	57.345547      	58.487938      	56.365513      	57.867683      	56.96555       	58.01256       	57.649807      	58.923904      	61.817085      	65.60606       	63.377033      	63.844852      	64.08909       	63.60213       	63.6599        	63.89443       	63.686764      	64.08034       	63.981133      	64.15694       	64.06607       	63.995777      	63.99882       	64.04799       	63.457302      	63.728104      	63.671513      	63.552902      	63.661686      	63.582386      	63.858074      	63.638325      	63.46572       	63.766197      	63.77412       	64.00036       	63.713627      	63.584106      	63.61763       	63.905155      	63.753677      	63.98091       	64.18168       	64.07048       	64.24392       	63.901554      	64.097786      	64.07776       	64.15056       	64.303734      	64.0299        	
64.15282       	64.16953       	63.925686      	63.997643      	63.920116      	63.914978      	64.06413       	64.38938       	64.12164       	61.093273      	56.099377      	56.062122      	56.381966      	56.448307      	56.41255       	56.461544      	56.32111       	56.36783       	56.629944      	56.876476      	56.885387      	57.361378      	57.52704       	57.670334      	57.543858      	57.898586      	57.92741       	57.831127      	57.63424       	57.773968      	57.95111       	57.700718      	57.615334      	57.63474       	57.626804      	57.738636      	57.538185      	57.58778       	57.771576      	57.693806      	57.612556      	57.412518      	57.53368       	57.6395        	58.667324      	58.317894      	58.03647       	58.4632        	58.256958      	57.490173      	58.670403      	58.73767       	58.35235       	57.7555        	59.277527      	60.01727       	60.339172      	62.735767      	65.93974       	64.012146      	64.17802       	64.263054      	64.17885       	64.26134       	64.12217       	63.97628       	63.940586      	64.30323       	64.184715      	64.119606      	64.514915      	64.06361       	63.94229       	63.861294      	63.54614       	63.729336      	63.714245      	63.44535       	63.699047      	63.351112      	63.608635      	63.56773       	63.96221       	63.875538      	63.828278      	63.714848      	63.793556      	63.59434       	63.860825      	63.74205       	63.84098       	63.88719       	63.85802       	64.059364      	64.18172       	64.32111       	64.03882       	64.17474       	64.110054      	64.16029       	
63.87757       	64.05519       	63.84116       	63.9924        	64.1849        	63.999622      	63.90733       	63.644043      	63.973125      	63.371544      	55.477745      	56.265327      	56.049507      	56.31944       	56.241215      	56.503155      	56.520756      	56.594906      	56.641018      	56.79094       	56.851933      	57.12997       	57.330303      	57.221447      	57.700886      	57.694614      	57.52376       	57.7431        	57.59827       	57.694893      	57.704277      	57.44536       	57.404118      	57.66083       	57.524906      	57.310383      	57.44229       	57.69611       	57.472725      	57.12686       	57.16145       	57.27243       	57.211666      	57.2649        	59.091217      	57.854015      	58.965603      	58.337517      	59.769684      	58.281998      	58.933987      	59.728195      	61.051228      	60.44439       	60.354908      	62.8017        	61.90565       	64.63097       	64.618675      	63.66233       	64.05099       	63.914433      	63.846153      	63.998894      	63.905987      	64.01566       	64.00459       	64.096725      	63.860012      	63.750065      	63.61147       	64.033875      	64.012825      	63.995457      	63.568954      	63.506325      	63.99267       	63.343826      	63.58788       	63.68419       	63.47464       	63.50176       	63.905975      	63.56924       	63.96191       	63.639423      	64.042145      	64.21517       	64.20156       	64.157845      	64.49868       	64.22848       	64.21861       	64.275215      	64.21698       	64.14573       	64.28003       	64.15306       	63.941498      	64.12489       	
64.01521       	64.27717       	64.425285      	64.41585       	64.189896      	64.11369       	64.20242       	64.00513       	63.94765       	64.021286      	58.796646      	55.935623      	56.454052      	56.450123      	56.19746       	56.332832      	56.35233       	56.428688      	56.606567      	56.98525       	57.085407      	57.05807       	57.468964      	57.661354      	57.722828      	57.997326      	58.016376      	57.916977      	57.784138      	57.695393      	57.474026      	57.5194        	57.457508      	57.27787       	57.25188       	57.38941       	57.2018        	57.190666      	57.201824      	56.902447      	56.94433       	56.80846       	57.618828      	57.784477      	60.02311       	59.1971        	61.171425      	61.243744      	61.20369       	61.319763      	61.80901       	61.93298       	63.519108      	61.40933       	62.86888       	65.4133        	63.984207      	64.01731       	64.01138       	64.16885       	64.01763       	63.70747       	64.16416       	64.100334      	63.95026       	63.754536      	63.79946       	64.02509       	64.00191       	63.91227       	63.969444      	64.087395      	64.12049       	63.959946      	63.64974       	63.861786      	63.47842       	63.763153      	64.016495      	63.850136      	63.450752      	63.417133      	63.536484      	63.778675      	63.917896      	63.884995      	63.7943        	63.887516      	63.722103      	63.973793      	64.19162       	63.893368      	64.10643       	64.46916       	64.27865       	64.17321       	63.986984      	64.5485        	64.12858       	64.11336       	
64.07869       	64.07027       	63.84571       	63.979446      	64.05865       	63.78233       	64.043465      	63.991463      	64.19356       	64.091095      	61.361557      	55.921947      	56.138664      	56.277145      	56.459446      	56.382984      	56.41645       	56.443172      	56.68658       	56.888237      	56.992622      	57.075584      	57.352196      	57.484856      	57.694145      	57.83208       	58.028034      	57.930126      	57.68356       	57.46799       	57.42557       	57.295307      	57.421066      	56.670708      	56.85821       	56.96135       	56.812252      	56.925133      	57.551186      	58.63136       	59.01955       	57.714573      	60.595615      	59.74548       	61.743534      	61.842762      	61.22179       	63.802666      	63.544426      	63.951588      	64.24292       	64.18433       	65.44173       	64.63942       	64.41202       	64.33581       	64.47024       	64.40183       	64.13863       	64.39405       	64.19912       	64.109085      	64.36325       	64.22975       	64.3582        	64.22886       	64.08307       	64.18489       	64.234276      	64.52263       	64.327896      	64.28898       	64.269135      	64.47426       	64.07616       	64.04367       	63.91768       	63.958477      	63.94397       	64.12438       	64.036804      	64.01119       	64.123825      	63.96969       	64.18624       	64.04088       	63.831264      	64.14159       	64.33868       	64.41998       	64.292         	64.39474       	64.673256      	64.638504      	64.7821        	64.57374       	64.56591       	64.51033       	64.863525      	64.52638       	
64.4096        	64.350235      	64.36263       	64.29537       	64.27526       	63.993454      	63.957108      	63.9675        	64.30974       	64.31056       	63.57203       	55.75912       	56.314278      	56.56313       	56.46926       	56.459915      	56.989166      	56.800983      	57.149208      	57.182735      	57.273636      	57.446808      	57.810295      	57.791397      	57.79965       	58.107204      	58.016926      	57.777695      	58.087116      	57.721832      	57.51147       	57.204376      	57.361885      	57.80657       	58.31618       	58.728004      	60.66202       	59.7451        	61.324043      	61.797527      	62.0503        	62.5784        	62.5219        	62.217937      	63.451504      	65.131         	64.20825       	65.41953       	65.52939       	64.70749       	64.82695       	64.78747       	64.915054      	64.902794      	65.057434      	64.96179       	64.89295       	64.75086       	64.760635      	64.773254      	64.68615       	65.060196      	64.61517       	64.82377       	64.70399       	64.70915       	64.33934       	64.68395       	64.670334      	64.6309        	64.66981       	64.664536      	64.504425      	64.52795       	64.48303       	64.45402       	64.52568       	64.38024       	64.47125       	64.289024      	64.302475      	64.273895      	64.10136       	64.13835       	64.585846      	64.594215      	64.578674      	64.401955      	65.09          	64.66117       	64.677086      	64.65353       	64.67607       	65.005875      	64.89551       	64.831184      	64.92476       	64.82869       	64.901         	64.9888        	
64.57823       	64.52985       	64.82672       	64.98876       	64.80596       	64.64796       	64.1382        	64.42041       	64.62016       	64.644295      	64.88364       	58.57203       	56.424526      	56.26427       	56.376564      	56.76734       	56.79362       	56.978313      	57.18349       	57.005604      	57.217327      	57.05342       	57.484695      	57.75185       	57.710583      	57.47716       	57.546093      	57.586235      	57.723934      	57.915646      	57.89039       	59.40322       	59.531063      	59.511723      	60.677273      	61.75337       	60.40356       	60.228134      	61.99795       	63.4306        	63.06783       	64.50014       	64.85518       	64.7962        	64.52155       	64.75169       	64.94649       	64.67478       	65.02354       	65.198845      	65.001526      	65.14889       	65.1985        	64.65863       	64.80914       	64.42782       	64.903534      	64.63426       	64.61264       	64.69666       	64.519035      	64.66066       	64.55184       	64.485176      	64.583305      	64.51753       	64.36084       	64.75722       	64.71189       	64.99673       	64.76014       	64.47465       	64.58129       	64.70024       	64.20625       	64.23834       	64.02022       	64.25672       	64.22961       	63.90999       	63.61642       	64.49641       	64.18389       	64.52463       	64.560455      	64.437485      	64.24578       	64.559204      	64.56109       	64.36708       	64.76436       	64.68454       	64.779724      	64.798195      	64.605515      	65.09337       	64.83706       	64.705475      	64.80769       	64.92941       	
64.798836      	65.010956      	64.60502       	64.44547       	64.8828        	64.637         	64.75174       	64.75967       	65.04584       	64.71429       	64.56831       	59.463505      	55.927963      	56.558643      	56.760437      	56.633423      	56.66538       	56.519485      	56.91863       	56.959053      	56.79309       	56.88874       	57.313362      	57.04519       	57.15852       	57.91042       	59.189945      	59.156994      	60.247112      	59.23572       	59.394768      	61.3264        	61.418453      	61.53632       	62.23317       	63.974308      	62.894726      	63.91208       	65.04935       	64.60071       	64.354004      	64.00629       	64.431786      	64.465706      	64.42572       	64.91178       	64.87089       	65.0836        	64.980354      	64.73776       	65.02826       	64.91842       	65.07461       	64.97146       	65.006775      	64.989044      	65.193825      	64.95954       	64.9361        	65.04969       	64.92323       	64.96988       	64.78941       	64.77769       	64.67089       	64.5543        	64.81333       	64.92302       	64.52656       	64.65362       	64.841995      	64.89119       	64.555336      	64.57259       	64.69588       	64.574875      	64.1672        	64.594505      	64.622         	64.71861       	64.42425       	64.47732       	64.584785      	64.44706       	64.51405       	64.79331       	64.35991       	64.55108       	64.42611       	64.78667       	64.73772       	64.82807       	64.59151       	64.96323       	64.92313       	64.72715       	65.0067        	64.98795       	64.68819       	64.93038       	
64.8602        	64.72655       	64.627045      	64.75394       	64.909584      	64.913734      	65.102684      	64.75393       	64.570854      	64.75532       	64.96832       	61.25696       	56.407364      	57.071007      	56.821312      	57.290794      	56.863483      	56.96773       	57.24926       	57.19084       	57.961437      	58.149555      	59.908985      	61.532852      	58.808647      	59.088657      	59.70442       	60.224007      	61.122078      	61.553905      	63.753242      	62.50916       	64.43879       	64.33194       	64.18176       	66.42373       	67.338745      	66.065445      	66.13391       	65.76168       	65.465614      	65.480995      	65.20983       	65.57496       	65.11182       	65.023994      	65.06512       	64.64638       	64.59535       	65.20279       	64.8541        	64.778496      	65.092476      	64.55717       	64.86113       	64.94329       	64.59183       	64.66643       	65.03494       	65.07943       	64.83097       	65.258705      	64.81871       	65.041595      	64.90305       	64.9107        	64.88474       	64.83062       	64.78576       	64.55796       	65.22153       	65.14818       	64.86958       	64.79314       	64.809875      	64.7579        	64.78389       	64.57697       	64.60561       	64.590675      	64.4837        	64.673004      	64.50325       	64.27021       	64.47839       	65.19348       	64.6292        	64.63033       	64.89548       	64.56616       	64.07221       	65.01622       	64.37825       	64.39174       	65.1234        	64.513214      	64.3296        	64.412346      	64.56801       	64.56454       	
64.897675      	64.94236       	64.82137       	64.765495      	64.72228       	64.847534      	64.67085       	64.5923        	64.59297       	64.69174       	64.83174       	64.942535      	64.36043       	62.760742      	62.48027       	62.672504      	62.72698       	63.72727       	64.53985       	66.58643       	64.520874      	62.203102      	61.645245      	61.87385       	62.03154       	62.093338      	61.793175      	63.259598      	63.625065      	63.194786      	66.16715       	65.98409       	65.82877       	65.2641        	65.22014       	64.80551       	64.90302       	63.938934      	64.96385       	65.70954       	65.887215      	64.71659       	65.1267        	64.81709       	64.69924       	64.54843       	65.08527       	64.69405       	64.724915      	64.50441       	64.448425      	64.58275       	64.93263       	64.57238       	64.756516      	64.708855      	64.45315       	64.69213       	65.003746      	64.64079       	64.83349       	64.7514        	64.547905      	64.81233       	64.73556       	64.57764       	64.70868       	64.79599       	64.84533       	64.74043       	64.5995        	64.75368       	64.842415      	64.94209       	64.621315      	64.65962       	64.783714      	64.82446       	64.71849       	64.98483       	64.77281       	64.87798       	64.95885       	65.24995       	64.75361       	64.67154       	64.450905      	64.86292       	64.76726       	64.26751       	64.698875      	64.65488       	64.7476        	64.55581       	64.55125       	64.667755      	64.70529       	64.41887       	64.42112       	64.40538       	
64.18481       	64.53767       	64.84472       	64.66816       	64.455864      	64.85283       	64.693794      	64.70223       	64.81369       	64.745636      	64.75181       	64.44211       	64.401695      	64.88582       	64.61981       	64.75348       	64.559654      	64.63071       	64.61342       	64.68086       	64.681816      	64.72116       	62.898502      	62.54744       	63.149517      	63.526047      	64.69618       	66.032616      	65.07028       	64.88707       	64.5548        	64.634026      	64.68296       	64.57457       	64.275955      	64.4645        	64.432945      	64.36583       	64.45519       	64.35631       	64.16938       	64.214905      	64.26547       	64.38339       	64.34566       	64.32339       	64.553635      	64.34405       	64.4992        	64.268616      	64.53893       	64.34412       	64.52087       	64.24241       	64.22446       	64.288055      	64.46972       	64.24034       	64.54102       	64.48966       	64.551         	64.42494       	64.15914       	64.513245      	64.38253       	64.51709       	64.43632       	64.64713       	64.436165      	64.374374      	64.493095      	64.38607       	64.56512       	64.41973       	64.454834      	64.35669       	64.77463       	64.36977       	64.47742       	64.6101        	64.36443       	64.217545      	64.60432       	64.39603       	64.66238       	64.39862       	64.575615      	64.81588       	64.2153        	64.44097       	64.36286       	64.31687       	64.45485       	64.47212       	64.38454       	64.82873       	64.59535       	65.16874       	64.404724      	64.42402       	
63.90518       	63.89208       	63.876755      	63.712734      	63.88554       	63.91012       	64.20508       	64.219696      	64.37601       	64.64186       	63.75823       	64.070915      	64.263275      	64.262825      	64.04612       	64.327255      	64.28067       	64.50389       	64.78578       	64.02345       	64.66702       	64.042305      	64.41628       	64.24956       	64.481705      	63.495956      	64.042336      	63.798283      	63.77534       	64.23006       	63.86726       	64.250206      	63.780365      	64.23685       	64.180435      	64.07398       	64.13861       	64.09253       	64.28904       	63.993004      	64.045815      	64.02511       	63.924217      	64.23886       	64.039246      	64.02899       	64.14439       	64.005684      	63.879086      	64.00447       	63.815456      	64.34843       	64.213554      	64.008835      	64.26813       	64.07005       	63.702938      	64.17213       	64.00238       	64.34554       	64.22683       	64.24987       	64.569664      	64.64249       	64.26362       	64.40707       	64.392296      	63.975666      	64.455765      	64.4383        	64.303925      	64.38651       	64.09062       	64.39275       	64.221275      	64.06106       	64.29683       	64.04108       	64.15773       	64.339615      	64.28054       	64.0422        	64.5657        	64.088196      	64.28729       	64.11525       	64.41259       	64.120995      	63.98553       	63.85874       	64.048325      	63.814075      	63.93884       	64.11452       	63.909122      	63.962856      	63.684574      	64.308876      	64.30376       	63.74709       	
64.35512       	64.37841       	64.38992       	64.06171       	64.575294      	63.87157       	64.27773       	64.092896      	64.963165      	64.47539       	64.42345       	64.43864       	64.61741       	64.51313       	64.08617       	63.919113      	64.36433       	64.50381       	64.34878       	64.66774       	64.17338       	64.32471       	64.55916       	64.39902       	63.69089       	64.53149       	64.306625      	63.52007       	64.25339       	64.13478       	64.130104      	63.849976      	64.52063       	64.063446      	63.936653      	64.10621       	64.2047        	64.11479       	64.36195       	64.16752       	63.969204      	64.47508       	64.245125      	64.393776      	64.36944       	64.25284       	64.56385       	64.47384       	64.224945      	64.53468       	64.10177       	64.03055       	64.60204       	64.23236       	64.59343       	64.199196      	63.864685      	64.446785      	64.89599       	64.5805        	64.53865       	63.897324      	64.535934      	64.30166       	64.42605       	64.29191       	64.43906       	64.52558       	64.405045      	64.11775       	64.090034      	64.97197       	64.73478       	64.13554       	64.51943       	64.70592       	64.5994        	64.248695      	64.61376       	64.212685      	64.54783       	64.44197       	64.217445      	64.37607       	63.888172      	64.80428       	64.373375      	64.45454       	64.3434        	64.00535       	64.669914      	64.24175       	64.39702       	64.11627       	64.42225       	64.40097       	63.977165      	64.05776       	64.09912       	63.535122      	
64.28449       	64.41524       	64.2766        	64.11661       	64.33473       	64.73227       	64.24883       	64.36559       	64.0826        	64.48039       	64.08228       	64.07461       	64.4664        	64.348114      	64.02585       	63.97405       	64.2843        	63.78571       	64.05185       	64.16535       	64.57058       	63.766026      	63.919403      	64.213036      	64.15812       	63.421272      	63.594086      	63.748135      	63.566128      	63.877697      	63.818417      	64.210495      	63.63902       	63.927498      	64.07403       	63.851734      	63.6244        	63.64556       	63.59217       	63.131344      	63.749542      	64.376945      	63.07566       	63.77175       	63.468838      	63.84099       	63.759007      	63.89116       	63.775883      	63.89605       	63.56998       	63.355114      	64.048164      	63.67532       	63.675728      	63.015495      	63.50124       	64.08799       	63.51747       	63.498646      	65.15131       	63.06014       	63.906765      	63.564854      	63.69304       	63.50089       	63.99069       	63.611427      	63.935783      	64.02829       	63.72399       	63.285973      	64.27173       	63.74487       	63.924534      	63.748684      	63.625874      	64.19661       	64.1345        	63.71807       	63.701607      	63.772854      	63.498753      	63.653553      	63.217842      	63.640644      	63.531746      	63.918392      	64.10868       	63.417725      	63.264473      	63.465466      	62.7238        	63.626804      	63.852234      	63.206707      	63.009747      	63.835102      	63.19586       	62.88521       	
64.04068       	64.039894      	64.473         	64.40366       	64.466576      	64.395256      	64.426254      	64.16299       	64.316284      	64.47107       	63.668606      	64.42468       	64.38677       	64.42228       	64.12256       	64.14456       	64.53501       	64.01383       	64.2224        	64.192024      	64.08606       	63.889816      	64.34161       	63.584812      	64.22368       	63.76328       	63.70522       	64.23549       	63.96411       	63.83022       	63.860615      	64.39111       	63.940918      	63.874264      	63.86528       	64.10527       	63.951492      	63.898945      	63.874252      	63.969986      	63.762268      	64.033646      	64.25358       	64.07451       	63.766228      	63.968063      	64.19865       	64.00311       	64.02068       	64.36757       	64.19886       	64.35394       	64.38768       	64.71624       	64.23715       	63.863747      	64.14916       	63.995358      	64.32168       	63.965446      	64.53588       	64.23254       	64.30596       	64.32019       	64.5922        	64.425         	64.71364       	64.1262        	64.314316      	64.16158       	64.30102       	64.26217       	64.47204       	64.361046      	64.56415       	64.71825       	64.44574       	64.46533       	64.410645      	64.39577       	64.51223       	64.379         	64.58333       	64.66008       	64.47099       	64.55229       	64.48747       	64.65711       	64.745285      	64.34066       	64.40001       	64.385735      	64.207344      	64.10766       	64.32549       	64.569565      	64.17923       	64.364         	64.29585       	64.0584        	
63.651978      	63.68134       	63.35461       	63.45582       	63.357872      	63.646515      	64.12107       	64.09904       	63.75637       	64.05644       	64.34016       	63.941128      	63.978508      	63.748585      	64.134926      	64.13634       	64.335915      	64.253845      	64.19321       	63.99877       	64.50966       	63.952065      	64.26755       	64.27608       	63.985252      	64.023705      	64.072075      	63.95013       	63.857662      	63.905777      	64.16952       	64.22846       	64.12828       	63.87998       	64.107056      	63.99117       	63.817425      	64.07323       	64.10667       	63.874897      	64.23297       	64.12354       	63.824898      	63.93864       	63.67512       	64.21627       	64.1088        	64.35942       	64.4648        	64.22442       	64.73131       	63.67813       	64.239426      	64.43097       	63.965923      	63.74432       	64.21022       	64.075905      	64.2182        	64.08689       	64.55266       	64.28807       	64.12964       	64.37277       	64.0532        	64.11829       	64.215485      	64.210144      	64.50028       	64.04286       	64.6142        	64.2048        	64.06613       	64.44412       	64.2444        	64.48087       	64.23931       	64.18504       	63.79806       	63.824993      	64.2879        	63.54331       	64.44834       	63.80943       	63.725666      	64.7156        	64.38264       	64.24171       	64.133125      	64.09258       	63.96279       	64.13058       	64.21698       	64.173904      	64.11112       	64.25668       	63.94157       	64.29237       	63.98723       	64.204384      	
63.95277       	63.71749       	63.57064       	63.62232       	63.57211       	63.792675      	64.3028        	64.24463       	64.223404      	64.15681       	64.145454      	64.15616       	64.45501       	64.03632       	63.790768      	64.0646        	63.94067       	63.637775      	63.847538      	63.98678       	64.04363       	63.371418      	63.745445      	63.783737      	63.911148      	63.65862       	63.996098      	63.665493      	63.67003       	64.22439       	64.07195       	64.16722       	64.27046       	63.853016      	64.40056       	63.83908       	64.12802       	63.983475      	63.963375      	64.17702       	64.25683       	64.02609       	64.15388       	64.37296       	64.13174       	64.41406       	64.29707       	64.36015       	64.34033       	64.0701        	63.746017      	63.82681       	64.01179       	63.852253      	64.173164      	63.477417      	64.12465       	63.6675        	63.71033       	63.934         	63.820732      	64.04555       	63.79015       	64.04204       	64.15209       	64.01135       	63.665443      	63.68918       	63.764603      	63.85841       	63.938225      	64.10428       	64.06882       	63.628223      	64.01201       	63.750744      	63.59461       	63.763668      	64.12893       	63.9002        	63.67884       	64.16521       	63.328323      	63.83618       	63.717396      	64.03718       	63.791225      	63.438656      	63.806816      	63.420822      	63.52531       	63.855637      	63.823055      	63.312073      	63.240173      	63.622307      	63.39128       	63.446857      	64.09264       	63.42457       	
63.806816      	63.625095      	63.77306       	63.8688        	63.894234      	64.202896      	64.18099       	64.32845       	63.910973      	64.15764       	64.124275      	64.4774        	64.32253       	63.793686      	63.980595      	63.74383       	64.53863       	63.77977       	63.910778      	64.02501       	64.0101        	64.03534       	64.12228       	64.09055       	64.35341       	63.87373       	63.871674      	64.371025      	63.91144       	64.10406       	64.081314      	64.19098       	64.17742       	64.04186       	64.189095      	64.08307       	63.868748      	64.06029       	63.99574       	63.91788       	64.24066       	64.316925      	64.26241       	63.829132      	64.11409       	64.08321       	64.18132       	63.880035      	63.960213      	64.16276       	63.815468      	64.039604      	64.21605       	63.97005       	63.665455      	64.199356      	63.612316      	63.923023      	63.86093       	63.80769       	63.435555      	64.25164       	63.913013      	63.733784      	64.50806       	64.559525      	63.528534      	63.897816      	63.88432       	64.4423        	64.0906        	64.12958       	64.10822       	63.809277      	64.054634      	64.28905       	64.22389       	64.136856      	64.027824      	63.985104      	64.23652       	64.127686      	64.32554       	64.41486       	63.726845      	64.31804       	63.943928      	64.12137       	64.473404      	64.11237       	63.900864      	64.34083       	64.341095      	64.16114       	63.73296       	63.905666      	64.10967       	63.89166       	63.69779       	64.01462       	
63.65263       	63.791847      	63.623093      	63.62534       	63.86767       	63.736553      	63.76247       	63.973         	64.33472       	64.11574       	64.26569       	64.22341       	64.19307       	64.30123       	64.145905      	64.02955       	63.890503      	63.960365      	64.100555      	64.18266       	63.589615      	63.723557      	64.38324       	63.94156       	64.03673       	64.05709       	63.09825       	63.713264      	64.082855      	63.681614      	64.51411       	64.07382       	64.10309       	64.09562       	63.441532      	64.11296       	64.18155       	64.33264       	64.132675      	63.984356      	63.780334      	63.242863      	63.392723      	64.2447        	63.918358      	64.38253       	64.39389       	64.36685       	64.3251        	64.2001        	64.21726       	64.3304        	64.139755      	64.1706        	64.16945       	63.937134      	64.071396      	64.177635      	64.17344       	64.0948        	64.254395      	64.22738       	64.211716      	64.205505      	64.041824      	64.018555      	64.055305      	64.31546       	64.13617       	64.3801        	64.59899       	64.474464      	64.141045      	64.29509       	64.26508       	64.3548        	64.26661       	64.3073        	64.04166       	64.62501       	64.49186       	64.28554       	64.11831       	64.05677       	64.241516      	63.882877      	64.29121       	64.34248       	64.00565       	63.912827      	63.941822      	64.04958       	64.00659       	64.19887       	63.98444       	62.866802      	60.95976       	59.79382       	58.99017       	58.750664      	
64.00179       	64.13211       	63.774487      	63.733257      	63.797596      	63.63203       	63.538334      	63.87266       	63.594032      	63.467266      	63.62274       	63.644104      	63.896618      	64.45814       	64.06657       	63.99539       	64.414185      	64.087685      	64.30865       	64.239876      	64.43636       	64.237335      	64.402756      	64.2664        	64.51229       	64.080986      	64.19686       	63.735455      	63.78642       	63.81354       	64.13016       	64.107155      	63.927917      	64.272285      	63.92544       	64.33854       	63.87201       	63.728584      	64.37452       	63.943966      	64.228226      	63.70062       	64.237305      	64.229836      	64.0198        	63.95321       	63.875153      	63.764565      	63.787827      	63.978516      	63.928493      	64.10486       	64.10889       	63.945972      	63.6151        	63.62874       	64.042885      	64.00131       	63.501945      	64.16017       	64.17182       	63.87861       	63.88736       	63.936897      	64.117065      	64.112724      	64.27611       	64.131874      	64.04228       	64.19447       	64.34684       	64.09385       	64.07988       	64.37745       	64.39229       	64.088806      	64.413506      	64.27353       	64.215645      	64.12828       	64.28814       	64.17487       	63.700516      	63.972202      	64.02008       	64.116745      	64.09433       	63.85954       	64.51749       	64.351616      	63.932426      	61.739197      	59.469208      	58.92776       	58.851185      	58.267685      	57.7961        	57.367966      	56.84526       	57.382393      	
64.15623       	63.84533       	63.5179        	64.23128       	64.47253       	64.357025      	63.834877      	64.20419       	64.010155      	64.06785       	63.88022       	64.33557       	64.17085       	64.437035      	63.759357      	63.94826       	63.840702      	64.49686       	63.91517       	64.41739       	64.28043       	63.864418      	64.03876       	64.34053       	63.9599        	64.13977       	64.486786      	64.53878       	64.37868       	63.9918        	64.59606       	64.352104      	63.86543       	64.11691       	64.6089        	64.39144       	64.27793       	64.21493       	64.47824       	64.18833       	63.77517       	64.72894       	63.862446      	64.27396       	64.09025       	64.12966       	63.87227       	63.81895       	64.58363       	63.64059       	64.26733       	64.33648       	64.189926      	64.28269       	64.02462       	64.12247       	63.873188      	63.8782        	63.901367      	64.03518       	63.582726      	63.86632       	64.389694      	64.09628       	64.319214      	63.965485      	64.29251       	63.796757      	64.6744        	64.25185       	63.6425        	64.436745      	63.820282      	63.997856      	63.953823      	63.978165      	64.518845      	64.424446      	64.37415       	64.095345      	64.48655       	64.25564       	64.25658       	64.47712       	64.44861       	64.03025       	64.7117        	64.192505      	60.457127      	58.193146      	58.1486        	57.905125      	57.739082      	57.521812      	57.48034       	56.783466      	57.09133       	57.139633      	57.22297       	57.336205      	
63.94132       	63.915146      	63.624527      	63.41329       	63.645508      	63.42018       	63.62165       	63.186043      	63.31421       	63.12259       	63.226063      	63.632034      	63.33429       	63.399975      	63.97963       	64.0353        	64.225266      	64.1557        	64.18677       	64.112976      	64.33725       	64.082306      	64.38587       	64.21725       	64.15867       	63.83696       	64.102066      	64.34893       	63.924057      	64.10814       	64.08472       	64.227936      	64.42083       	64.53572       	63.85966       	63.982246      	63.701706      	64.91082       	63.873596      	64.151085      	63.86344       	64.1399        	63.767994      	63.914745      	63.852573      	64.22266       	63.66445       	63.915432      	64.542175      	63.84653       	63.797222      	64.21894       	63.93886       	63.896343      	64.11844       	64.154076      	64.226105      	63.596264      	63.945587      	63.85089       	63.272686      	63.873367      	64.125755      	63.801968      	63.54742       	63.596455      	63.454437      	63.690365      	63.697865      	63.903786      	63.284046      	63.542072      	63.632126      	64.23281       	63.58129       	63.703064      	63.374607      	62.895123      	64.485664      	63.26957       	63.62477       	63.405838      	64.891075      	61.849636      	63.93655       	63.45583       	64.47162       	59.317314      	58.21033       	57.317707      	57.01775       	57.093582      	56.74844       	57.25304       	57.002922      	57.235264      	56.843517      	57.17444       	57.1047        	56.863327      	
64.2631        	64.11151       	64.01209       	64.12772       	64.17837       	64.0031        	64.2056        	63.84227       	63.854294      	63.920837      	64.256035      	64.24316       	64.12858       	64.15899       	64.09181       	64.21291       	64.21088       	64.23607       	64.1826        	64.23883       	64.262634      	63.96737       	64.030205      	64.265335      	64.18017       	64.23944       	64.33463       	64.41708       	64.21041       	64.15551       	65.10025       	63.431004      	64.87963       	63.981125      	64.21752       	64.51193       	64.22707       	64.58099       	64.26685       	64.129196      	64.1916        	64.04071       	63.90932       	63.87295       	64.18174       	64.228424      	63.837536      	64.07349       	64.01855       	63.69741       	64.00097       	63.824554      	64.27975       	63.909847      	63.87469       	64.05556       	63.706017      	63.951843      	63.775517      	63.881763      	63.67984       	64.07361       	64.152145      	64.03058       	64.27018       	64.071205      	64.04984       	64.16576       	63.906708      	64.16998       	64.2206        	63.589302      	64.47073       	63.877586      	64.09329       	63.882484      	63.658115      	64.03957       	63.742203      	63.86028       	63.774673      	63.826336      	63.94201       	63.80265       	64.31936       	64.37449       	61.399853      	58.05331       	57.74632       	57.708416      	56.885536      	57.064087      	57.159756      	57.19543       	57.406445      	57.149548      	56.894455      	57.132885      	57.379425      	57.215984      	
64.12216       	63.65999       	63.85141       	64.58411       	64.25789       	64.265465      	64.070076      	64.66459       	64.515305      	63.853058      	64.30246       	63.88383       	64.23754       	64.32459       	64.15497       	63.87913       	63.790028      	63.57821       	63.75558       	63.65338       	64.15079       	63.91283       	63.871857      	63.92992       	64.4122        	64.00087       	64.27685       	63.944366      	64.078674      	63.919415      	63.963547      	64.14252       	63.79957       	63.962654      	64.02001       	63.891922      	63.718777      	64.16617       	63.916843      	63.97124       	64.26801       	63.931225      	63.69303       	64.421265      	64.21685       	64.255974      	64.459724      	63.74927       	64.65319       	64.173416      	64.44779       	64.29911       	64.15373       	63.85325       	64.21131       	63.945183      	63.62444       	63.67164       	63.898777      	64.01815       	64.0311        	63.75501       	63.68622       	64.04078       	63.444912      	64.19931       	64.01333       	63.5471        	64.03914       	63.85604       	63.795284      	64.253174      	64.612526      	65.18475       	64.266495      	64.02683       	64.04328       	63.83799       	64.09616       	63.815453      	64.3839        	63.783176      	63.870396      	63.892784      	64.068794      	63.474976      	60.584785      	58.171925      	57.940357      	57.921124      	57.01523       	56.88944       	56.976532      	57.249336      	57.253616      	57.06457       	57.025124      	57.402943      	56.69759       	57.02025       	
63.792805      	63.86877       	63.718464      	63.812767      	63.603565      	63.713303      	63.698563      	63.416748      	63.672596      	63.854816      	63.88843       	63.80574       	63.845985      	63.77212       	63.601276      	63.712482      	64.04481       	63.692497      	63.944912      	64.28273       	63.53634       	63.93629       	63.74321       	63.663074      	63.783493      	64.1828        	64.17787       	63.88464       	63.326706      	63.644806      	63.51705       	63.893593      	63.44432       	63.430466      	63.384644      	63.5039        	63.274643      	63.590725      	62.771164      	65.05105       	65.8622        	63.593037      	64.0027        	63.890446      	63.671177      	63.510597      	63.39189       	64.62847       	63.956593      	63.63655       	63.823814      	64.21712       	63.813602      	63.13638       	63.97701       	63.876434      	63.59525       	63.5892        	63.674976      	63.64221       	63.395405      	63.801926      	63.884605      	63.300724      	63.130985      	63.844715      	63.574783      	63.40705       	63.390022      	63.94973       	63.69415       	63.667587      	64.1809        	63.352734      	63.45597       	63.332882      	63.80856       	63.529285      	63.65817       	63.62492       	63.704014      	63.564556      	63.50258       	63.513355      	63.4883        	63.327515      	61.42216       	58.181255      	57.785496      	58.302055      	57.88834       	57.308167      	57.0184        	57.268253      	57.12824       	57.644135      	57.190487      	57.14488       	57.380432      	57.08327       	
64.04294       	64.22724       	64.26364       	63.958157      	63.89018       	64.13067       	64.07952       	63.87927       	64.199455      	63.877502      	63.675327      	63.80736       	63.839634      	64.02629       	63.950256      	63.98545       	63.78898       	63.808777      	64.25184       	63.939243      	63.86479       	64.200874      	63.808853      	64.219475      	63.881844      	63.73327       	63.83225       	63.81326       	63.527107      	63.45096       	63.951385      	64.04888       	64.70516       	64.64356       	64.49675       	64.35298       	64.21577       	64.50448       	64.37779       	64.27109       	64.31046       	64.5796        	64.30794       	64.44643       	64.29973       	64.13272       	64.580666      	64.47161       	64.26583       	64.372375      	64.35365       	64.15005       	63.992203      	64.1845        	63.989475      	64.25582       	64.038315      	63.8806        	64.02721       	63.915302      	63.99573       	63.7763        	64.22411       	64.29392       	64.14625       	64.1078        	64.63979       	64.088         	64.30529       	63.89639       	64.3576        	64.53327       	63.711197      	64.073364      	64.40631       	63.8781        	63.8638        	63.736626      	63.96159       	63.80236       	63.746174      	63.660717      	64.05794       	63.97299       	63.588295      	64.46726       	61.752995      	59.19287       	57.994656      	57.987576      	57.871082      	57.093815      	57.25515       	57.62547       	57.49861       	57.750862      	57.66695       	57.259247      	57.570946      	57.397305      	
63.501736      	63.687523      	63.484154      	63.72385       	64.18869       	64.25915       	63.915413      	63.49791       	64.14165       	63.93052       	64.29047       	63.989403      	63.726475      	64.28918       	63.97137       	63.872456      	64.31421       	63.994892      	63.38525       	63.98423       	64.18907       	64.16763       	63.61536       	64.05519       	64.283455      	64.50603       	64.084915      	64.16046       	63.83825       	63.948963      	63.79074       	63.496445      	63.97126       	63.568302      	63.91882       	63.875328      	64.32168       	62.743507      	63.854816      	63.96588       	63.44554       	64.12396       	63.865322      	63.90234       	63.322617      	63.61079       	64.28382       	64.01275       	63.99236       	64.00361       	63.613388      	63.37667       	63.94585       	63.69356       	64.162506      	63.162254      	63.47872       	63.607925      	63.51677       	64.4649        	62.219627      	63.676693      	65.08283       	63.781715      	62.663715      	65.59798       	62.3991        	63.562523      	63.87151       	63.395035      	63.221817      	63.927864      	62.926624      	62.951508      	64.42669       	63.327633      	64.441216      	63.42087       	63.714275      	64.36108       	63.532158      	63.561         	63.274506      	63.35959       	64.104164      	64.10945       	64.30625       	59.080414      	58.436203      	58.01672       	57.867455      	57.387383      	57.27403       	57.71159       	57.093372      	57.45658       	57.239582      	57.322105      	57.40466       	57.685562      	
63.521297      	63.745518      	63.337738      	63.166546      	63.11993       	63.06667       	63.644222      	63.374786      	63.305717      	63.81793       	64.49208       	63.776077      	63.768036      	63.914364      	64.01654       	63.77403       	63.640663      	63.712204      	63.61281       	63.69652       	64.024666      	64.18361       	63.940266      	63.76007       	64.159164      	64.25774       	63.84517       	63.899963      	64.48452       	64.22011       	64.18983       	64.096596      	63.766254      	64.18047       	63.73071       	63.596817      	63.438137      	63.87503       	63.237114      	63.4151        	63.49949       	63.90931       	64.14657       	64.34455       	63.595943      	63.64811       	64.38563       	63.8842        	63.918167      	64.00906       	63.99827       	63.75393       	64.06085       	64.42296       	63.60737       	63.78456       	63.558475      	63.55603       	60.405514      	59.074642      	59.350006      	59.595364      	60.170998      	61.72729       	66.61839       	64.3784        	64.635216      	64.488914      	64.40485       	64.28079       	64.37582       	64.37332       	64.5461        	64.090324      	64.20474       	64.372955      	63.978344      	64.09834       	63.97026       	64.234406      	63.883034      	63.547974      	63.752018      	63.909332      	63.83427       	64.122536      	64.35713       	60.762463      	58.483345      	58.102222      	58.189255      	57.518566      	57.114067      	57.15088       	57.810802      	57.716637      	57.505867      	57.247467      	57.87153       	58.94011       	
64.65568       	64.30428       	63.907345      	64.135254      	63.895615      	64.81154       	64.47923       	64.48525       	64.635925      	64.81362       	64.277885      	64.29418       	64.49639       	64.23913       	64.61683       	64.34639       	64.68562       	64.42473       	64.662056      	64.26567       	64.47068       	64.63874       	64.51502       	64.52318       	64.40823       	64.02265       	64.75971       	64.56132       	64.351814      	64.27598       	64.526085      	64.205246      	64.26557       	64.260056      	64.48108       	64.633156      	63.8535        	63.750526      	64.33481       	64.3102        	64.107124      	64.451164      	64.340744      	63.96407       	63.725143      	63.975082      	64.31976       	63.900135      	63.92246       	64.05362       	64.11721       	63.80227       	64.65872       	64.007126      	62.212208      	59.33503       	58.44078       	58.44969       	58.58547       	57.409492      	56.637268      	56.75862       	57.467426      	59.178585      	64.11507       	64.19871       	63.680244      	63.812923      	63.776638      	63.509823      	63.656467      	64.18688       	63.8907        	63.834126      	64.23638       	64.166466      	63.94252       	64.153435      	64.29605       	64.35886       	63.852623      	64.02909       	64.42906       	63.50167       	63.83038       	64.068306      	63.72828       	61.96471       	58.946346      	58.12463       	58.42192       	57.730545      	57.434944      	57.608093      	57.393135      	57.662704      	57.86297       	57.281944      	58.146484      	57.13202       	
63.441673      	63.581287      	63.948334      	63.826008      	64.25722       	63.598957      	64.21654       	63.641605      	64.020874      	63.383125      	64.25168       	63.805485      	64.11521       	63.521587      	63.444595      	63.824116      	64.50547       	63.66209       	63.377186      	63.45939       	63.696934      	63.676132      	63.979187      	63.409004      	63.753143      	62.764996      	63.60766       	63.662327      	63.07382       	64.07496       	62.93258       	62.981224      	63.71167       	63.870853      	63.632492      	63.300323      	62.888126      	63.667835      	63.405933      	63.286808      	63.64333       	63.44941       	63.343014      	63.730473      	62.963264      	63.23025       	63.483437      	63.94355       	62.67951       	63.029293      	60.871845      	59.089153      	58.646362      	58.604195      	58.631104      	57.54639       	57.450626      	57.186615      	56.8211        	56.87712       	57.396713      	56.89419       	57.502785      	58.340492      	62.200603      	64.617775      	63.775467      	66.119194      	64.34992       	64.23704       	64.2546        	64.437035      	64.18175       	64.07126       	64.48599       	64.406395      	64.38392       	64.21393       	64.31239       	64.48016       	64.46193       	64.38998       	64.39804       	64.5984        	64.21243       	64.26904       	64.16812       	64.13143       	58.68684       	58.29509       	58.201237      	57.57075       	56.89498       	57.470345      	57.433136      	57.43534       	57.690166      	57.612976      	57.60848       	57.880116      	
63.74344       	63.894093      	63.707497      	63.644985      	63.811905      	64.1267        	64.355484      	64.33331       	64.292534      	64.27624       	64.72134       	64.32474       	63.969852      	64.31893       	63.961273      	64.55779       	64.54393       	64.78568       	64.772644      	64.07367       	64.329575      	64.66198       	64.21136       	64.03264       	64.567024      	64.40465       	64.0695        	64.22412       	64.397835      	64.24442       	63.497196      	63.949825      	63.774937      	63.824924      	63.59602       	64.28345       	64.0003        	63.780426      	64.04965       	64.16517       	64.168045      	63.12763       	64.31336       	63.740284      	62.981426      	61.1741        	59.381485      	58.708565      	58.010746      	57.79128       	57.014927      	57.285965      	56.641144      	57.262672      	56.920353      	57.068874      	56.717014      	57.16235       	57.145805      	57.061123      	57.223347      	56.883793      	57.887672      	58.636433      	61.34791       	63.25871       	65.5582        	64.18672       	64.27481       	64.18967       	64.33957       	64.22577       	64.008934      	63.676693      	64.37539       	64.214165      	64.17342       	63.78971       	63.98287       	64.11551       	64.04365       	63.918655      	64.90091       	64.28205       	64.25314       	64.54977       	64.56858       	64.077126      	58.820644      	58.17176       	58.41798       	57.579975      	57.12595       	57.312813      	57.031017      	57.338306      	57.942997      	57.589607      	57.86112       	57.562218      	
63.94067       	63.899723      	63.522434      	64.343864      	65.74029       	63.63969       	64.08458       	64.746376      	64.434395      	64.723854      	64.42341       	64.354195      	64.37696       	64.445175      	64.46404       	64.299706      	64.58673       	64.46923       	64.44115       	63.549683      	63.930283      	64.48115       	64.358986      	64.17887       	63.664562      	63.860695      	63.808773      	64.35546       	64.63461       	64.412315      	64.2664        	64.0651        	64.29454       	64.18877       	63.919006      	64.17691       	63.399826      	63.514168      	63.21249       	63.714787      	62.947655      	61.28035       	59.771336      	58.4485        	58.019695      	57.916996      	57.42133       	56.725315      	57.22894       	57.133305      	57.277676      	57.149883      	57.30694       	57.51753       	57.534786      	57.62827       	57.29437       	57.402992      	57.61164       	57.325943      	57.033363      	57.17853       	57.52974       	58.864075      	61.316963      	62.276016      	66.49454       	64.16172       	64.07967       	63.968967      	63.901688      	64.2311        	64.471695      	64.70896       	63.99519       	64.30974       	64.14213       	64.220474      	64.596565      	64.2096        	63.635403      	63.44249       	63.450787      	63.896935      	63.831238      	63.54657       	63.813534      	64.18588       	60.315876      	58.530293      	58.37782       	58.12428       	56.84365       	56.943344      	57.698566      	57.152878      	57.550514      	57.3819        	57.60135       	57.50751       	
63.84308       	63.472664      	63.963924      	64.303894      	64.74879       	65.78046       	64.217         	64.688576      	64.451324      	64.22139       	64.41305       	64.14746       	64.24669       	64.63504       	64.18623       	64.04198       	64.42129       	64.3885        	64.81743       	64.430176      	64.220184      	64.61873       	64.485085      	64.639435      	64.322014      	64.26118       	64.644104      	64.55426       	64.55492       	64.49076       	63.83233       	64.068275      	64.12565       	64.115654      	64.04354       	64.087776      	60.59321       	59.148926      	59.367775      	58.24765       	57.718426      	57.27421       	57.21577       	57.203434      	56.747593      	56.959057      	57.040802      	56.767025      	56.89434       	56.828625      	56.985027      	57.14186       	56.962936      	57.019535      	56.865223      	57.025993      	57.101227      	56.991196      	57.378017      	57.044373      	56.927853      	56.81221       	56.800175      	57.77623       	60.011086      	63.301704      	64.75961       	63.47516       	63.367172      	63.558937      	64.09376       	63.458584      	63.525043      	63.741085      	63.5676        	63.954838      	63.550007      	63.49782       	63.713833      	63.86611       	63.46984       	63.47756       	63.749218      	63.413235      	63.71113       	63.39178       	64.135086      	63.74538       	62.69568       	58.821762      	58.18958       	58.137527      	57.398357      	57.550564      	57.476788      	57.28642       	57.61637       	57.273148      	57.410275      	57.272415      	
64.16067       	64.63874       	65.0366        	63.937935      	63.748844      	64.92446       	64.10445       	63.946323      	63.842556      	63.84747       	64.008736      	63.65593       	63.74115       	64.18134       	63.580215      	63.296143      	63.9483        	63.505646      	63.843052      	63.233547      	63.86577       	64.0899        	63.356434      	63.491013      	63.68588       	64.615295      	62.7238        	63.313213      	63.447624      	63.646965      	63.31696       	64.33881       	63.980644      	61.038067      	59.1868        	58.823044      	58.00356       	57.611195      	57.25509       	57.22977       	57.31928       	57.239906      	57.084682      	57.337513      	57.390053      	57.408245      	57.35378       	57.51821       	57.570602      	57.600544      	57.656322      	57.71827       	57.701942      	57.869003      	57.62882       	57.687016      	57.889336      	57.52566       	57.723225      	57.544174      	56.832245      	56.725674      	56.751472      	57.449883      	58.15567       	63.186554      	65.86972       	64.04234       	63.844097      	63.822117      	63.767693      	63.57449       	64.326454      	64.050446      	64.14076       	64.0832        	64.0599        	63.832993      	63.99278       	64.15078       	63.874767      	64.16572       	64.17068       	64.08104       	64.18016       	64.61495       	64.587524      	63.895287      	63.470474      	59.66471       	58.207756      	58.09242       	57.451046      	56.59384       	56.980663      	57.16598       	57.202587      	57.17544       	57.101406      	57.155502      	
63.59339       	63.86687       	64.28244       	64.9475        	63.13254       	64.48892       	64.19636       	63.841522      	63.890476      	63.862984      	63.89156       	63.936672      	63.372345      	64.66985       	63.823597      	63.47386       	63.83529       	63.654816      	63.681923      	64.03761       	63.741325      	63.696278      	63.903755      	64.075836      	63.98559       	63.340515      	63.624977      	64.015495      	63.829205      	60.047657      	58.442757      	58.29541       	58.381824      	57.705994      	57.34537       	57.472958      	56.64576       	56.938362      	57.13723       	56.982838      	56.61787       	57.058895      	57.484917      	57.496967      	57.323757      	57.631744      	57.41977       	57.33669       	57.315784      	57.649746      	57.489956      	57.574463      	57.6665        	57.807045      	57.576458      	57.748795      	57.899853      	57.69548       	57.621563      	57.520622      	56.96581       	56.936916      	57.485695      	57.065113      	58.385666      	62.124153      	65.41952       	63.91004       	64.02981       	64.28393       	64.30725       	63.99872       	64.12156       	64.17153       	63.94281       	64.31549       	63.920563      	64.01643       	63.84147       	64.01188       	64.48399       	64.34673       	64.42169       	64.45882       	64.65819       	64.02909       	64.58264       	64.375656      	63.91821       	59.30688       	58.199036      	58.200497      	58.091465      	56.851913      	56.869816      	57.822697      	57.376842      	57.462486      	57.4942        	57.42659       	
63.43535       	63.970345      	64.40648       	64.38086       	64.35061       	64.478355      	64.30374       	64.2462        	64.25836       	63.857986      	64.08587       	64.23011       	64.1528        	63.935017      	64.238106      	63.799355      	63.5131        	64.21213       	63.605446      	63.81951       	63.675537      	63.818512      	63.90831       	63.767323      	63.84066       	63.903778      	64.3602        	62.58159       	58.591465      	57.0893        	56.864307      	57.07696       	56.851845      	56.8965        	57.053883      	56.773994      	57.35533       	57.255833      	57.12877       	57.220806      	57.029533      	57.060608      	56.921932      	56.833263      	57.026176      	56.975243      	57.00952       	57.179337      	57.28807       	57.151665      	57.08587       	57.153576      	57.17488       	57.392746      	57.40537       	57.249935      	57.554157      	57.36133       	57.126232      	57.237743      	57.04927       	57.30253       	56.664936      	56.93579       	57.656322      	59.558975      	63.55609       	65.87459       	64.02053       	63.744728      	63.757107      	63.668858      	64.11948       	63.743484      	63.945896      	64.26496       	63.581326      	63.91603       	63.909107      	63.749302      	63.67442       	64.22758       	64.05574       	63.71484       	63.982464      	63.91951       	63.664825      	63.893482      	63.607376      	61.210907      	58.573246      	58.367237      	58.34244       	57.262146      	57.15146       	57.3333        	57.213547      	57.226727      	57.59513       	57.31925       	
63.20796       	63.67366       	64.24067       	64.384575      	64.281715      	63.822605      	64.07854       	64.17561       	64.167404      	64.29667       	64.38711       	64.25396       	64.11697       	64.48667       	64.1316        	64.09172       	63.679447      	64.21915       	63.794304      	64.35852       	64.11568       	63.84222       	63.88424       	64.297806      	63.773365      	64.10934       	63.12748       	58.65049       	57.580757      	56.881966      	56.62149       	56.88236       	56.93251       	57.023384      	57.064095      	57.053043      	57.458206      	57.399456      	57.235718      	56.878006      	57.16117       	57.261204      	57.3468        	57.279884      	57.179966      	57.020737      	57.517666      	57.26947       	57.476315      	57.311726      	57.493965      	57.337353      	57.474396      	57.440186      	57.481316      	57.290085      	57.48423       	57.59606       	57.145164      	56.93128       	57.137104      	57.029343      	56.1065        	56.65399       	57.32232       	58.874996      	62.562553      	65.52396       	63.142067      	63.407745      	63.504         	62.98694       	63.50395       	63.58156       	63.683056      	63.519047      	63.258965      	63.0718        	63.719547      	63.017406      	63.956024      	63.600628      	63.39282       	63.33679       	63.229362      	63.467365      	63.821766      	63.457016      	63.56351       	62.071922      	58.15308       	57.849537      	57.804913      	57.268288      	56.697906      	56.68477       	57.060104      	56.84693       	57.095352      	56.70717       	
63.8892        	63.780804      	64.22783       	64.60163       	64.33743       	64.11121       	63.888412      	63.99856       	63.964443      	64.246826      	63.75512       	63.75001       	64.22526       	64.11873       	64.09377       	64.10405       	64.137085      	64.19482       	64.172585      	64.40753       	64.16632       	64.096275      	64.40012       	64.02107       	63.817715      	64.24771       	60.66992       	58.06642       	58.03302       	57.432613      	56.989456      	56.758686      	56.925117      	57.00879       	57.311535      	57.27997       	57.314903      	57.44315       	57.88547       	57.435547      	57.342533      	57.322273      	57.45756       	57.75656       	57.278175      	57.67705       	57.89449       	57.291046      	57.50093       	57.357693      	57.506493      	57.567135      	57.517         	57.816456      	57.329662      	57.29566       	57.694126      	57.531643      	57.419704      	57.416164      	57.191563      	57.368347      	57.128998      	56.451218      	57.182537      	58.737732      	62.183414      	65.819786      	64.24588       	64.00209       	64.16052       	64.20644       	63.846813      	64.02675       	64.022285      	64.34242       	64.02128       	64.12948       	64.10383       	64.3352        	64.19589       	63.861797      	64.101265      	63.84723       	64.050476      	63.769287      	64.32282       	63.787777      	63.650208      	63.791233      	58.476276      	57.950092      	57.995705      	57.701977      	57.635643      	56.99771       	57.026142      	57.55257       	57.36993       	57.242275      	
63.426292      	63.543037      	64.41495       	64.095         	63.256824      	63.664825      	64.06236       	64.099236      	64.06822       	64.10041       	64.197426      	63.59847       	63.85256       	64.05546       	64.05505       	63.881676      	64.06452       	64.02399       	64.09228       	63.90903       	63.758724      	63.925797      	63.834972      	64.26615       	64.017494      	64.18029       	60.528843      	58.143837      	57.928684      	57.60253       	57.040634      	56.986744      	57.496056      	57.24267       	57.21047       	57.050766      	57.319084      	57.552757      	57.31332       	57.743053      	57.87329       	57.479683      	57.505077      	57.485607      	57.61586       	57.37993       	57.3619        	57.340992      	57.679832      	57.74195       	57.665215      	57.268894      	57.59666       	57.55127       	57.67696       	57.461422      	57.414364      	57.3828        	57.140636      	57.3306        	57.072453      	56.80451       	57.067352      	56.76135       	56.79677       	57.80051       	59.994247      	65.27092       	63.50235       	63.685806      	62.47538       	63.57174       	63.11728       	63.578373      	63.55798       	63.326153      	63.13956       	63.826363      	63.162792      	63.24649       	64.06974       	63.25105       	63.344967      	63.785137      	63.53498       	63.441265      	62.909515      	63.100685      	63.75577       	63.53487       	61.11547       	58.382378      	58.000248      	57.481262      	57.33087       	56.82981       	57.123993      	57.53072       	57.109875      	57.363266      	
63.822857      	63.959328      	64.6515        	64.65179       	64.6179        	64.369965      	64.434105      	64.35652       	64.51065       	64.26429       	64.42622       	64.068695      	63.86907       	64.11357       	64.11871       	64.190025      	63.88963       	63.72483       	63.8157        	63.885723      	63.430508      	63.69731       	63.98432       	63.939297      	64.48124       	64.44818       	61.9974        	58.584446      	58.18853       	57.738052      	57.095795      	56.924324      	57.56122       	57.031902      	57.67129       	57.264973      	57.175564      	57.53188       	57.119846      	57.464108      	57.236233      	57.291473      	56.950245      	57.396572      	57.46806       	56.446316      	57.156292      	57.21012       	57.424988      	56.91756       	57.118088      	57.27547       	56.946186      	57.24407       	57.304844      	57.211475      	56.92144       	56.72408       	57.469185      	57.155968      	56.69995       	57.403107      	56.265896      	56.434944      	56.82279       	56.095654      	59.182884      	63.391346      	65.60962       	63.550476      	63.755756      	64.08039       	63.10376       	63.865036      	63.365055      	63.622524      	63.601604      	63.277977      	63.428047      	63.339386      	63.638546      	63.772415      	63.26994       	63.594204      	63.722076      	63.034874      	63.769653      	63.19571       	63.039284      	63.260025      	61.785152      	58.022266      	58.206715      	57.970123      	57.71117       	57.14527       	56.702854      	57.272324      	57.40773       	57.082035      	
63.55628       	63.656456      	63.88595       	64.31899       	64.45056       	64.31765       	64.01021       	64.05873       	64.08537       	63.94          	64.1535        	64.46396       	64.24359       	64.007935      	64.16515       	63.943417      	64.38525       	64.26021       	64.23702       	64.12108       	64.28362       	63.93984       	63.967464      	63.923225      	64.05291       	64.28165       	63.976086      	58.46313       	58.10587       	57.79703       	57.0779        	56.737705      	57.04334       	56.96287       	57.180054      	57.024982      	57.25227       	56.921524      	57.58233       	57.51739       	57.557823      	57.387974      	57.789387      	57.417427      	57.730305      	57.865566      	57.146896      	57.1949        	57.328995      	57.24043       	57.03934       	57.612232      	57.4634        	57.535027      	57.41495       	57.652058      	57.60129       	57.235218      	57.578827      	57.30081       	56.84448       	57.11129       	57.712246      	56.290676      	56.63057       	56.284546      	58.889046      	62.032463      	65.71324       	63.69113       	63.346394      	63.191776      	63.3241        	63.420147      	63.470345      	64.1795        	64.416985      	63.68337       	63.94686       	63.993916      	63.65036       	63.924126      	63.90419       	64.69893       	63.597923      	64.13136       	64.30222       	64.42756       	63.85324       	64.205315      	61.442772      	58.905296      	57.825153      	57.472298      	57.280273      	56.643917      	56.7758        	57.696255      	57.797203      	57.54217       	
62.70026       	62.618153      	64.13666       	65.51794       	64.62887       	65.366295      	63.708027      	64.0787        	64.35371       	64.11574       	63.982002      	64.17198       	64.06677       	64.34297       	64.26394       	64.02649       	64.29354       	64.08782       	64.27619       	64.07602       	63.80131       	63.935436      	64.01383       	64.09434       	64.04079       	63.98023       	64.3217        	59.44439       	58.223503      	57.704437      	57.05454       	56.809174      	56.94883       	57.215187      	57.67185       	57.980225      	58.002277      	57.42384       	57.780087      	57.469852      	57.470253      	57.510483      	57.509125      	57.57878       	57.59081       	57.34752       	57.08058       	57.36439       	57.2468        	56.903553      	57.330288      	57.530205      	57.12246       	57.203323      	57.220592      	57.293365      	57.3744        	56.766987      	57.103466      	57.012295      	57.77529       	56.22948       	57.17917       	57.646946      	57.115154      	57.159367      	59.270313      	61.853764      	65.446754      	64.12418       	64.20077       	64.37793       	64.19443       	64.11199       	64.054504      	63.524464      	63.78579       	63.89319       	63.483727      	64.02235       	63.922726      	63.89104       	64.05351       	63.37579       	63.78442       	64.42719       	64.07592       	63.86271       	63.72292       	63.757946      	63.45173       	58.66508       	58.024456      	58.020145      	57.842327      	57.40937       	56.905376      	56.668613      	57.717957      	57.305084      	
57.161907      	57.859524      	59.448196      	61.35148       	66.0873        	64.846954      	64.17381       	63.946957      	64.03215       	64.36464       	64.313194      	64.26721       	64.0074        	63.971928      	63.856667      	63.962875      	64.273865      	63.878723      	64.029465      	64.06905       	63.946537      	64.43393       	63.757935      	63.799496      	64.46553       	63.89802       	64.12338       	61.648666      	58.53364       	58.306213      	57.514263      	56.76932       	56.83107       	57.58667       	57.34299       	57.109623      	57.539352      	57.718147      	59.202736      	57.089752      	57.33921       	57.168045      	57.73618       	57.569756      	57.338295      	57.551468      	57.45891       	57.73542       	57.32052       	57.433823      	57.11869       	57.327442      	57.569004      	57.066154      	57.488827      	57.50704       	57.331646      	57.15679       	56.96354       	56.957123      	56.772354      	57.091084      	56.270832      	57.28871       	56.664192      	57.355072      	59.054756      	61.69197       	65.09298       	63.772095      	63.75313       	64.17796       	63.849228      	63.376007      	63.712635      	63.59742       	63.726036      	63.23753       	64.319374      	63.15724       	63.40231       	63.986702      	63.460674      	63.504448      	63.095818      	64.001526      	63.628918      	63.35873       	63.480247      	63.645477      	63.52343       	60.703716      	58.242413      	57.867386      	57.343697      	56.965485      	56.926483      	57.114967      	57.26728       	57.522263      	
56.082016      	56.6412        	57.46151       	59.06796       	64.284035      	65.44178       	63.84042       	64.07331       	63.642662      	64.19314       	63.95821       	63.623825      	63.884373      	64.34176       	63.921574      	64.0428        	64.23309       	64.28041       	63.56375       	63.88195       	63.7512        	64.0301        	63.593765      	63.95279       	64.06773       	63.84412       	64.0099        	62.993057      	58.654285      	57.88731       	57.96497       	57.540592      	57.212013      	56.968605      	57.316048      	57.586758      	57.51642       	57.959343      	56.723557      	57.21572       	57.62756       	57.118202      	56.970837      	57.397404      	57.20387       	56.89272       	56.948887      	56.908745      	58.183807      	56.430943      	56.9323        	57.32735       	57.423664      	56.60924       	57.328476      	56.86953       	57.262844      	56.99718       	56.946487      	57.060734      	56.73503       	56.55072       	56.748344      	56.85553       	56.167885      	56.63988       	56.938488      	59.096115      	65.16334       	64.9384        	63.302544      	63.304874      	63.235573      	63.741146      	63.153267      	63.81452       	63.69674       	63.23192       	63.34          	63.932716      	63.695667      	63.635265      	63.43574       	63.801903      	64.35342       	62.68205       	63.957066      	63.43206       	63.441338      	63.678303      	63.84272       	61.3797        	58.633125      	58.08701       	57.848022      	57.327         	56.96458       	57.21557       	57.24757       	57.3373        	
56.66375       	56.36494       	56.713963      	58.143482      	62.203938      	66.6085        	63.633163      	63.668377      	63.22053       	64.430885      	63.46798       	63.158157      	63.093758      	63.261074      	63.09871       	64.15376       	63.402824      	63.679176      	63.41582       	63.82684       	63.41063       	63.610073      	63.11319       	63.603027      	63.499138      	63.863605      	63.673985      	65.10192       	58.771706      	58.23597       	57.584324      	57.215916      	56.909985      	56.654213      	56.74435       	56.713787      	57.577354      	56.983593      	57.477436      	57.06224       	56.985504      	57.101055      	56.963543      	56.765083      	56.702168      	57.086613      	56.84169       	56.558914      	56.684147      	57.074345      	56.438663      	56.860817      	56.846313      	56.56095       	56.83468       	56.800068      	56.84099       	56.90081       	56.717323      	56.518703      	56.924126      	56.81294       	56.56004       	56.62607       	56.585194      	55.8713        	56.291485      	58.86601       	62.109802      	64.97387       	62.284046      	63.760845      	62.229374      	63.4631        	63.161743      	63.64815       	62.102936      	62.857502      	63.293793      	62.57223       	62.348354      	63.846893      	62.343517      	62.779003      	62.293564      	63.149055      	62.539585      	64.42026       	62.47231       	62.76498       	63.729027      	61.415096      	57.910942      	57.90622       	57.924282      	57.270664      	57.220993      	56.728127      	56.719414      	57.23878       	
56.196156      	56.402878      	57.096104      	58.719852      	60.509666      	64.029335      	64.8487        	64.19104       	64.17426       	63.842663      	63.58433       	63.730625      	63.88364       	64.09661       	64.56829       	64.56272       	64.463524      	63.16435       	64.0168        	63.229565      	63.62375       	63.538124      	63.481735      	63.258778      	64.24136       	64.86056       	63.79868       	63.873844      	61.94205       	58.61858       	57.55641       	57.050835      	56.502987      	56.870445      	57.162254      	56.568573      	56.84575       	57.765713      	57.466763      	56.90666       	57.139626      	57.07853       	57.45977       	56.944397      	57.19534       	57.25141       	57.112343      	57.081135      	56.82947       	57.757202      	55.998528      	57.37149       	57.389713      	56.167965      	57.32707       	56.943512      	57.267464      	56.548187      	56.625984      	57.47953       	56.198227      	56.744305      	56.479855      	56.300926      	55.92545       	56.914368      	55.51375       	57.05774       	61.8762        	65.68943       	63.99312       	63.669262      	63.358276      	63.775185      	63.62785       	63.451214      	63.883488      	63.022556      	63.303425      	63.76391       	63.277283      	63.265247      	63.878895      	63.498093      	63.374966      	63.56664       	63.73858       	63.492085      	63.47775       	63.56732       	63.547848      	62.855095      	58.895027      	57.872456      	57.211205      	56.49058       	56.616856      	56.821686      	57.250732      	57.481712      	
56.090843      	56.347397      	57.21749       	58.014206      	61.344112      	62.48997       	65.82484       	63.33631       	62.81717       	64.489815      	63.920746      	64.13946       	63.072975      	62.614777      	63.73165       	63.730465      	63.836136      	65.26767       	63.88677       	63.66532       	63.175186      	63.568718      	65.197716      	63.037014      	63.378735      	63.45678       	63.4994        	65.09799       	62.02244       	58.12223       	57.75549       	57.25977       	56.86013       	56.802547      	56.73446       	57.2385        	57.352875      	57.383305      	57.437622      	57.004513      	57.137444      	57.300323      	56.975403      	56.769905      	57.468258      	57.153618      	56.9854        	56.9481        	57.049217      	57.103428      	57.00784       	57.11905       	57.00011       	56.722683      	56.550438      	57.368633      	56.324         	57.185345      	57.605434      	56.889015      	57.567078      	56.26288       	56.747513      	56.988987      	56.13342       	57.280655      	55.773926      	57.865223      	59.966175      	63.22592       	64.88312       	63.698452      	63.193024      	63.6955        	63.602856      	63.680004      	63.656166      	64.03321       	63.67152       	63.133305      	63.834896      	63.7579        	63.384743      	63.254295      	63.233395      	63.98156       	63.046516      	63.041508      	64.05876       	62.95949       	63.778725      	63.372295      	60.479317      	58.00399       	57.449963      	57.71119       	57.24502       	57.486443      	57.436737      	56.961365      	
56.184364      	56.409164      	57.299763      	58.48543       	60.265606      	63.109356      	65.03492       	63.45374       	63.54614       	63.439053      	63.486347      	63.849323      	64.04976       	63.683792      	64.34038       	64.20564       	63.576214      	63.83672       	64.23209       	63.43553       	63.68734       	64.62966       	64.28686       	63.544254      	64.3496        	63.557568      	63.793068      	64.11478       	63.676945      	59.16959       	58.100365      	57.801983      	57.04438       	56.5718        	56.822258      	57.237057      	57.21674       	58.26907       	57.37454       	57.29374       	57.15501       	56.991226      	57.262207      	56.920036      	57.146984      	56.97853       	57.098373      	57.13555       	57.27971       	57.477047      	57.354618      	57.19369       	57.573414      	56.74271       	57.787918      	57.252083      	56.886574      	56.72219       	57.28699       	57.152504      	57.25133       	57.00477       	57.18866       	56.364075      	57.07189       	57.212845      	56.989395      	57.32371       	60.904816      	61.54749       	65.81903       	63.64359       	63.32871       	63.168674      	63.628517      	62.920635      	63.63282       	63.37106       	62.793373      	64.88331       	62.73536       	63.084465      	63.256115      	62.927025      	63.129032      	62.895622      	63.468376      	63.814087      	63.003307      	63.155235      	62.954075      	63.7118        	60.741177      	58.894592      	58.146954      	56.788788      	56.93354       	56.95546       	57.01419       	56.78991       	
56.90857       	56.930595      	57.209087      	57.137512      	58.768524      	62.946095      	65.85448       	63.47759       	63.46665       	63.560726      	63.589096      	64.25727       	64.11619       	63.7427        	65.16644       	64.26941       	63.541794      	64.71219       	63.41889       	64.51701       	65.507195      	64.1378        	63.62765       	63.352528      	63.366016      	63.69743       	63.90603       	63.869507      	63.57531       	61.4581        	57.5836        	57.19342       	56.78102       	56.989475      	57.83106       	57.314205      	57.174126      	57.677387      	56.880737      	57.359787      	58.16638       	57.261787      	57.1264        	57.253315      	56.59319       	57.714584      	57.367958      	57.336945      	57.476273      	57.267635      	57.32362       	57.312695      	57.37623       	57.440273      	57.189148      	56.96793       	57.425022      	57.490414      	57.35662       	57.41125       	57.12993       	56.520714      	56.900253      	56.539715      	56.364685      	56.368427      	56.647167      	57.221455      	59.216503      	62.387333      	65.69586       	63.51769       	63.486607      	63.409607      	63.63178       	63.441315      	63.458366      	63.092957      	63.137257      	63.309574      	63.39571       	63.149784      	63.83661       	64.2617        	63.986145      	62.9952        	64.62909       	63.190662      	64.21743       	63.987175      	63.545868      	63.411797      	62.712566      	58.61606       	57.961197      	56.522068      	56.578335      	56.40722       	56.8139        	56.480625      	
56.28884       	56.416878      	56.87999       	57.22334       	57.667744      	61.42032       	64.75095       	64.31895       	63.48199       	63.60409       	63.248356      	64.22595       	64.2568        	63.94393       	63.54052       	63.906357      	64.3301        	63.872143      	63.415886      	63.67898       	63.804737      	63.537537      	63.729603      	63.82432       	64.2173        	64.51237       	63.794308      	63.91761       	63.618263      	59.616707      	58.11018       	57.580853      	56.41668       	55.770462      	56.423214      	56.94504       	57.104298      	56.91641       	57.323257      	56.793583      	57.08022       	57.980457      	57.505016      	57.19909       	57.70556       	56.32856       	57.32134       	56.915016      	56.45269       	56.7582        	57.200184      	56.454273      	57.158833      	56.50609       	56.863674      	56.906227      	56.956356      	57.114536      	57.00398       	56.870724      	56.593643      	56.479218      	56.980915      	56.878357      	56.064625      	57.063095      	55.810604      	56.633945      	57.916847      	61.806683      	66.03925       	62.984734      	63.47167       	62.931385      	63.680607      	63.630043      	63.58525       	63.52777       	63.175453      	63.637905      	63.40363       	63.546444      	63.021336      	63.407623      	63.348164      	63.140995      	62.98287       	63.195812      	63.412766      	63.53665       	63.434765      	63.48661       	63.535275      	59.046207      	57.537212      	57.0261        	56.998222      	56.528763      	56.657654      	56.874928      	
56.051983      	56.24114       	56.1955        	56.762547      	57.89623       	60.959705      	63.20297       	65.16411       	63.304108      	64.05201       	63.73696       	63.85193       	63.623085      	63.861614      	63.689674      	64.107475      	63.4221        	64.03184       	64.26117       	63.643463      	63.615845      	64.14326       	63.082916      	63.62641       	63.264153      	63.45809       	63.156673      	62.901         	63.538822      	62.136314      	58.226162      	57.26984       	57.06637       	56.65056       	56.444576      	56.893806      	57.24843       	57.479137      	58.23966       	56.878815      	56.878418      	57.233055      	56.550255      	56.32608       	57.32206       	56.965256      	57.1428        	57.105343      	56.92038       	57.218136      	56.35972       	57.075565      	57.134136      	56.774178      	57.450447      	56.663013      	57.107655      	56.895832      	56.735325      	57.321507      	56.827442      	57.04808       	56.73381       	56.75837       	56.335876      	56.60215       	56.278988      	55.83569       	57.42222       	61.03802       	63.781063      	65.18249       	63.444397      	63.70416       	63.71088       	63.064835      	63.268974      	63.39825       	63.425064      	63.121395      	63.315125      	63.35024       	63.21134       	63.65749       	64.20147       	62.78571       	63.421093      	63.335884      	63.58008       	62.768486      	63.073193      	63.693893      	63.82112       	59.35459       	58.061398      	58.43922       	58.307053      	57.784172      	57.386063      	57.225548      	
56.436005      	56.635067      	56.815994      	57.14093       	57.520496      	59.81598       	62.86253       	65.915405      	63.526226      	64.594955      	63.92977       	64.179146      	63.868885      	64.52787       	63.486176      	64.0799        	63.84629       	63.47844       	64.015465      	63.914345      	63.710068      	63.626606      	63.549187      	63.64438       	65.27383       	63.770416      	64.066246      	63.564133      	63.848854      	63.008816      	58.197357      	58.076416      	57.432987      	56.892056      	56.7248        	57.185513      	57.44736       	57.256104      	57.451023      	58.385437      	57.343212      	57.548683      	57.35411       	57.403458      	57.464058      	57.353123      	57.26217       	57.078957      	57.18031       	56.790558      	57.039486      	57.39978       	57.011974      	57.678963      	56.74825       	57.15254       	56.934254      	57.112385      	56.888382      	57.212315      	56.988808      	57.432854      	57.291264      	57.04236       	57.005238      	56.614662      	56.664524      	56.02386       	56.909256      	59.76517       	64.35163       	63.5714        	63.52079       	63.239098      	63.683056      	63.386925      	63.462727      	63.12878       	63.37435       	63.73907       	63.242226      	63.55011       	63.964584      	63.28933       	63.65972       	63.76774       	63.656464      	63.22914       	63.544098      	63.40278       	63.791767      	63.231743      	63.166866      	62.657276      	60.508667      	60.941456      	60.54856       	59.787598      	59.42363       	59.16457       	
56.420486      	56.42367       	56.9115        	57.135735      	57.450554      	59.339035      	62.615067      	65.14374       	63.760998      	63.92714       	63.662357      	63.59423       	64.25625       	63.78891       	63.520466      	63.841908      	63.612453      	64.58098       	63.7797        	64.241196      	63.369865      	64.67128       	62.961998      	63.246304      	63.184864      	63.146065      	63.07867       	63.182034      	63.715744      	63.75596       	60.285572      	58.116604      	57.44038       	56.981556      	56.870728      	56.86945       	56.931732      	56.984894      	56.78146       	57.107555      	57.99809       	57.86509       	57.805733      	57.315815      	56.728626      	57.878895      	56.95548       	57.060455      	57.206898      	56.91129       	56.836254      	57.054626      	56.888683      	57.311733      	56.940895      	57.181213      	57.141624      	57.00276       	56.823204      	57.393436      	56.543552      	57.352913      	56.60493       	56.623684      	57.33691       	55.959         	56.626945      	56.603935      	56.822872      	58.61396       	62.235004      	65.03048       	62.801594      	63.391594      	63.534573      	63.83759       	63.412502      	63.234386      	63.971287      	63.591415      	63.32561       	63.325073      	63.93314       	63.16331       	63.36533       	63.33143       	63.66692       	62.765163      	63.773483      	63.565784      	63.90721       	62.877975      	63.46993       	63.86434       	63.857635      	62.775978      	60.34773       	60.760475      	60.047215      	59.786175      	
56.307842      	56.629097      	56.657997      	56.61528       	57.679237      	58.68805       	61.856903      	65.00038       	63.83121       	63.297985      	63.655876      	63.75661       	63.781315      	64.06221       	64.09775       	63.89846       	63.559753      	63.606117      	64.032616      	63.716595      	64.49778       	63.413303      	63.74382       	63.318165      	64.20261       	63.24424       	63.88313       	63.123714      	63.393826      	63.830776      	61.787018      	58.269947      	57.93607       	57.275707      	56.737297      	56.911186      	57.19229       	56.95839       	57.772057      	57.0387        	56.969727      	57.72243       	56.92734       	57.1807        	57.28845       	57.161522      	57.126457      	57.313885      	56.882122      	56.829865      	56.98358       	56.77815       	56.617596      	57.010483      	56.78749       	56.944626      	56.91304       	56.912193      	57.036095      	57.159554      	56.686626      	57.070484      	57.385567      	56.700363      	56.62661       	56.76034       	56.583656      	56.24128       	56.514942      	58.969154      	61.467003      	65.59243       	63.873768      	63.58836       	63.803555      	64.0234        	63.802658      	63.566284      	63.470367      	63.622868      	63.7536        	63.975464      	63.51906       	63.295506      	63.61269       	63.554375      	63.184696      	63.264713      	63.81323       	63.04367       	63.99704       	64.81378       	63.880337      	64.264015      	63.97539       	64.25074       	62.487263      	62.36488       	61.037617      	62.202324      	
56.300797      	56.605118      	56.59478       	56.23264       	56.920914      	57.250862      	59.801197      	64.09689       	64.19829       	63.394573      	63.869114      	63.794003      	63.67855       	63.86822       	63.90919       	63.30551       	63.793068      	64.05743       	63.71863       	64.04088       	63.934166      	63.806343      	63.617016      	63.691185      	63.38345       	63.592026      	63.52426       	63.093838      	63.555218      	63.294827      	63.245193      	58.88855       	57.902782      	57.35533       	56.69757       	56.420624      	56.90577       	57.28051       	57.467426      	56.93856       	57.61581       	56.88893       	56.573612      	57.171337      	57.0697        	56.95593       	56.372684      	56.812943      	57.916298      	56.60908       	56.814342      	56.824024      	56.745438      	57.187016      	56.569813      	56.70535       	57.229313      	56.695362      	57.05247       	56.560684      	56.851208      	56.998363      	57.46055       	56.482697      	56.592014      	56.50276       	56.5471        	56.285282      	55.91754       	57.049213      	60.553997      	63.82851       	64.83184       	63.827568      	63.562954      	63.340435      	63.372208      	63.352047      	63.47696       	63.56837       	63.59358       	63.33354       	63.597538      	63.36784       	63.676987      	63.249264      	63.832428      	63.262722      	62.897087      	63.53551       	63.243813      	63.864494      	62.571617      	63.46044       	62.939037      	63.659588      	63.495346      	63.841576      	63.315285      	63.216614      	
56.19388       	56.28655       	56.57714       	56.185135      	56.345535      	57.172012      	58.921986      	62.593582      	65.5843        	63.653248      	63.98723       	64.03224       	63.863403      	63.78533       	63.772556      	64.20792       	63.76129       	64.31096       	63.834175      	63.71031       	64.0524        	63.81062       	63.97033       	63.80406       	63.57159       	63.273655      	64.01848       	64.05216       	63.683697      	63.899673      	63.820827      	59.836773      	58.060905      	57.721657      	57.10646       	56.832794      	56.698765      	56.817356      	56.937737      	56.651886      	57.072258      	57.17841       	56.883972      	57.060696      	57.014793      	56.813137      	56.765995      	57.136612      	56.54846       	58.40133       	56.78315       	56.898327      	56.829067      	56.932465      	57.071056      	57.230843      	56.899597      	56.81764       	56.998276      	57.301395      	57.232048      	57.074795      	57.1787        	57.036263      	56.715427      	56.74721       	57.281944      	56.47521       	56.170185      	57.284943      	58.707176      	61.91399       	65.997345      	62.93328       	63.3583        	63.010983      	63.456043      	63.498497      	63.055225      	63.64733       	63.388794      	63.698215      	63.344646      	64.56054       	62.73094       	63.044876      	63.554535      	63.79354       	63.11682       	63.256165      	63.336685      	63.50673       	63.209415      	63.298145      	64.13388       	63.59948       	63.616882      	63.227543      	63.10214       	63.388245      	
56.414154      	56.31223       	56.534637      	56.494644      	56.229465      	56.950497      	58.63264       	60.63461       	66.01238       	63.423553      	63.976585      	63.891476      	63.314796      	63.436424      	64.14756       	64.02314       	64.48947       	63.982403      	64.21535       	64.22102       	63.818565      	64.005226      	63.96125       	63.471874      	63.258842      	63.418064      	63.273083      	63.341377      	63.298294      	63.219276      	63.72053       	61.49484       	58.15656       	57.71527       	57.287983      	57.12001       	57.00087       	56.85867       	56.517612      	57.157505      	57.400146      	57.221355      	57.2857        	57.045364      	57.285545      	57.528164      	57.24455       	57.123745      	57.125114      	57.094738      	57.244717      	57.157646      	57.366802      	57.053253      	57.303844      	57.17042       	57.105698      	57.029007      	57.53627       	57.142925      	57.48909       	57.42849       	57.065018      	57.41997       	57.053825      	57.110985      	57.29646       	56.823467      	56.833992      	56.255493      	58.08437       	60.81541       	62.96536       	65.36853       	63.45375       	63.52724       	63.049133      	63.13476       	65.231865      	61.96346       	62.81385       	63.357555      	64.14152       	62.899963      	63.036076      	64.02624       	63.746212      	63.011784      	63.226772      	63.42592       	63.76063       	63.032402      	62.847145      	63.39969       	63.376324      	63.488632      	64.181984      	63.047672      	63.16849       	63.50947       	
56.33377       	56.4994        	57.347023      	57.149372      	56.541145      	56.595184      	57.371357      	60.714024      	62.32526       	65.10126       	63.300156      	63.24666       	63.887077      	64.60045       	63.101715      	63.253365      	63.351433      	63.7068        	63.702488      	63.339962      	63.402584      	63.727596      	65.22842       	63.08935       	63.245186      	63.69065       	63.50729       	63.53989       	62.95791       	64.069435      	63.24511       	61.27582       	57.899254      	57.91807       	57.298855      	56.891872      	56.960823      	57.01318       	56.849358      	57.23698       	57.75229       	56.812912      	56.9452        	57.329357      	56.73139       	57.177338      	56.862957      	57.071156      	57.09477       	57.310947      	56.7818        	57.41966       	56.79055       	56.705925      	57.5363        	56.752453      	57.103394      	56.432587      	57.280415      	57.239414      	56.72309       	57.061226      	57.24241       	56.664707      	56.53939       	56.250744      	57.010788      	56.40784       	56.43259       	56.69538       	55.85686       	59.808556      	61.504986      	65.1047        	63.03059       	63.158474      	63.552525      	63.052555      	63.20254       	62.693047      	63.725296      	62.575516      	63.89967       	63.051506      	63.036865      	63.338398      	63.504852      	63.73893       	62.31888       	63.407227      	63.731525      	62.87039       	62.890327      	63.2861        	62.259834      	64.00793       	62.953613      	63.068672      	63.35633       	63.215706      	
56.446728      	56.552513      	57.1174        	57.291378      	56.93494       	56.894085      	57.495686      	59.902874      	62.44895       	65.706856      	63.91143       	63.561214      	63.980534      	63.84171       	63.693775      	64.2436        	63.7779        	63.89364       	63.79886       	63.323174      	63.540714      	63.404087      	63.94408       	63.45057       	63.116005      	63.864         	63.072697      	63.738174      	63.06836       	62.97177       	63.342293      	62.6088        	58.660458      	57.781086      	57.08342       	57.188393      	57.179035      	57.30516       	56.957726      	57.376614      	57.660564      	56.92185       	57.092896      	56.992413      	57.56961       	56.953533      	57.229206      	56.9533        	57.080063      	57.071167      	57.012657      	56.781822      	57.117565      	57.045273      	56.673836      	56.942432      	56.79599       	57.322945      	56.560925      	57.02761       	56.618317      	56.938328      	58.392727      	57.439182      	56.432194      	57.37227       	56.665756      	57.3906        	57.315872      	58.229572      	57.489075      	58.17817       	61.08883       	66.877884      	64.05416       	63.757015      	63.860813      	63.811764      	63.858585      	64.06021       	63.565105      	63.686478      	64.00889       	62.86702       	63.27784       	63.721497      	63.07633       	63.6808        	63.549477      	63.89894       	63.446075      	63.79624       	63.444336      	63.890232      	62.505085      	64.45009       	64.06997       	64.0701        	63.776268      	63.249393      	
56.314705      	56.76433       	57.584618      	57.3438        	56.934635      	56.55173       	56.972706      	58.723423      	61.95014       	65.30697       	63.195583      	62.681587      	62.894814      	62.650063      	63.272488      	64.67678       	62.242573      	63.44674       	63.50932       	63.238895      	63.43749       	63.17575       	63.176872      	63.63615       	62.91206       	63.382797      	63.809845      	62.987617      	63.815243      	63.37453       	63.374306      	63.045776      	58.85522       	58.552692      	57.016285      	56.901432      	56.53397       	57.050823      	57.522736      	56.839275      	57.329926      	57.49673       	57.060215      	57.06888       	57.23408       	56.758366      	57.326324      	57.218746      	56.908657      	56.930992      	57.22477       	57.123592      	56.236607      	57.537796      	56.63974       	57.22491       	56.418255      	56.658         	56.709038      	56.61971       	56.34174       	57.11113       	57.129417      	57.40383       	60.11376       	58.08323       	58.21088       	59.03348       	59.26639       	59.6992        	59.729614      	60.230183      	62.90749       	66.19067       	64.11088       	64.29122       	64.47485       	63.988422      	64.221756      	63.59718       	64.44708       	64.24224       	63.942265      	63.91469       	64.07161       	63.818146      	64.00562       	64.03666       	64.7182        	63.114243      	63.631744      	63.690437      	63.962265      	63.43663       	63.677437      	64.10521       	63.475914      	63.86174       	63.833664      	63.958393      	
56.32816       	56.78805       	57.520046      	57.446377      	57.159134      	56.679333      	56.92889       	57.68318       	61.55712       	64.65773       	63.741222      	64.09698       	63.73278       	64.16511       	63.603302      	63.77942       	63.71147       	64.12011       	64.30926       	63.85748       	63.707355      	63.646763      	63.809624      	63.7089        	63.622597      	63.90787       	63.696198      	63.411224      	63.70334       	63.52664       	64.76325       	62.932888      	60.423195      	57.68877       	57.821636      	57.164047      	56.75212       	56.940006      	57.27474       	56.8675        	57.01557       	57.40502       	57.509724      	57.19289       	57.231407      	57.285686      	57.170296      	57.07939       	57.040157      	57.19155       	57.662624      	56.774857      	57.0406        	56.88399       	56.816257      	57.235565      	57.4076        	57.178032      	57.92109       	57.246826      	57.37562       	58.555447      	59.33037       	58.71349       	60.251274      	60.050697      	61.12261       	60.52615       	61.783417      	61.551464      	61.01971       	62.51531       	65.99016       	65.04903       	64.60992       	64.34434       	64.244995      	63.953514      	64.01387       	63.656994      	63.84323       	63.984848      	64.08155       	64.491295      	64.28005       	64.52342       	64.11297       	64.31197       	64.29219       	64.31204       	64.55018       	63.80952       	64.230316      	64.33171       	64.269005      	64.34839       	64.45943       	64.1049        	64.25016       	64.235275      	
56.32901       	56.760014      	56.81571       	56.541138      	56.693726      	56.239906      	57.08521       	58.343037      	60.956913      	62.18617       	65.322624      	63.41214       	63.821243      	63.617336      	63.40121       	63.33532       	63.77538       	63.671177      	63.2392        	63.54928       	63.280296      	63.33866       	63.69706       	63.776043      	63.482613      	63.2008        	63.63039       	63.378147      	63.492577      	63.251213      	63.234406      	62.96975       	61.71037       	58.1322        	57.8394        	57.3051        	56.942623      	57.092617      	57.210964      	57.11569       	57.55749       	57.377438      	57.470406      	56.991352      	57.138683      	56.85389       	56.717373      	56.82832       	57.765236      	56.180756      	57.317543      	57.28726       	57.9413        	57.378273      	57.610825      	59.448208      	59.58699       	57.94886       	58.426052      	59.388435      	60.621822      	60.244347      	60.506912      	60.579365      	61.68987       	61.967766      	62.10389       	63.436806      	64.22737       	65.51131       	65.71732       	64.51955       	64.6112        	65.11219       	64.35601       	64.794525      	64.520164      	64.73372       	64.71258       	64.73852       	64.59011       	64.44549       	64.53161       	64.784515      	64.448296      	64.54309       	64.74115       	64.45754       	64.20983       	64.4173        	64.2327        	64.282364      	64.324036      	64.27414       	64.2463        	64.30933       	64.17473       	63.91923       	64.575714      	64.20624       	
56.610012      	56.78104       	56.833435      	57.051315      	57.17807       	56.434998      	56.661205      	57.306202      	60.119816      	63.10427       	65.725945      	63.62148       	63.400135      	63.65003       	63.714813      	63.366947      	63.5111        	63.632607      	63.281734      	63.57977       	63.465366      	63.383327      	63.39371       	63.495598      	62.985817      	63.499973      	64.07944       	63.896606      	63.63797       	64.0668        	63.800735      	63.978573      	62.90694       	58.347668      	57.95376       	57.148945      	56.684288      	56.913204      	57.697365      	57.584915      	57.586582      	57.928993      	57.30247       	57.249523      	57.72251       	56.759792      	56.95863       	57.558346      	57.17846       	58.863876      	59.1945        	59.75894       	58.27036       	58.92004       	59.90063       	59.579544      	59.76077       	60.02088       	59.778378      	60.846115      	62.837368      	62.71075       	62.924126      	62.85197       	64.090576      	65.85787       	64.9156        	64.22019       	64.17703       	64.29661       	63.837734      	64.30896       	64.65061       	64.592384      	64.43385       	63.950554      	64.84557       	64.53551       	64.41483       	64.24584       	64.263885      	64.21187       	64.323456      	63.96327       	64.130554      	64.060715      	64.0114        	63.840225      	64.343414      	63.873024      	64.29782       	64.189316      	63.958935      	64.0531        	63.996822      	64.25476       	63.970848      	64.04907       	64.53764       	64.2207        	
56.87293       	56.68628       	56.661858      	57.41207       	56.967083      	57.037544      	56.960888      	57.360542      	59.519985      	62.38355       	65.7746        	63.747883      	63.897774      	63.899826      	63.902626      	64.330605      	63.548595      	63.532715      	63.52074       	64.088585      	63.922478      	63.479717      	63.565113      	63.3447        	63.26724       	63.590252      	63.640533      	63.590343      	63.377186      	63.57426       	64.100586      	63.698807      	63.339127      	58.676895      	57.7421        	57.24112       	57.085434      	56.707607      	57.127163      	57.42101       	57.10677       	57.224537      	57.330463      	57.97708       	58.117382      	58.487484      	59.462162      	58.60152       	58.597588      	58.253773      	59.213802      	59.313713      	59.785854      	60.1072        	60.176266      	60.800217      	61.707897      	62.31153       	62.691185      	63.025578      	65.09045       	64.37524       	65.55219       	64.95883       	64.16438       	63.54146       	63.850548      	63.749382      	63.492596      	63.48198       	62.93243       	63.29851       	64.131805      	63.347595      	63.3838        	63.51943       	63.29921       	63.659515      	63.618866      	63.534508      	63.24006       	63.635612      	63.25889       	63.739925      	63.496773      	63.545517      	63.402336      	63.79866       	63.385284      	63.41361       	63.98458       	63.621727      	63.440742      	63.106796      	63.782288      	63.36784       	63.62042       	64.23393       	63.225513      	63.168835      	
56.59083       	56.815407      	56.824608      	56.436646      	56.640404      	56.051357      	56.447247      	57.272972      	59.141037      	61.67317       	65.20209       	63.75274       	63.550438      	63.333324      	63.473198      	63.510094      	63.218266      	63.349453      	63.865696      	62.44859       	63.28565       	63.45281       	63.481068      	63.069305      	63.896         	63.216248      	63.541836      	63.22015       	63.224586      	63.24441       	63.19998       	63.76013       	63.507538      	60.15408       	58.460106      	57.63487       	57.43051       	57.194965      	57.565475      	57.222492      	57.91302       	57.55187       	57.739616      	58.9853        	58.283543      	58.22914       	59.099636      	59.439434      	59.642284      	60.046513      	60.404125      	61.709408      	60.316288      	61.759586      	63.913837      	63.000362      	63.533085      	65.71342       	64.11123       	63.969364      	63.987587      	63.374786      	63.599827      	63.2766        	63.21831       	63.38152       	63.569447      	63.377747      	63.36186       	62.923244      	63.44641       	62.87861       	64.049324      	62.787174      	62.876156      	63.3525        	63.153008      	63.378838      	62.957165      	63.31902       	62.879528      	62.986866      	63.65764       	63.106266      	63.606853      	62.999565      	63.24687       	63.281696      	63.7312        	63.93581       	63.23926       	62.694897      	63.076107      	62.992733      	63.211517      	63.14489       	62.651558      	62.973564      	63.528435      	63.2912        	
56.264675      	56.277634      	57.065815      	57.27319       	56.999493      	57.259575      	55.89433       	56.41812       	57.56364       	61.569187      	64.77124       	63.86007       	63.05395       	63.535645      	63.301266      	64.8881        	64.44421       	63.862865      	64.063805      	63.997578      	63.7194        	63.737125      	63.582523      	63.51674       	63.542328      	63.8703        	63.732735      	64.24944       	63.575638      	63.51447       	63.576183      	63.482353      	63.73034       	61.3077        	59.383793      	59.95219       	58.656094      	58.114273      	58.76771       	58.701332      	58.159042      	58.284485      	58.775856      	58.86313       	59.85175       	58.772404      	60.086285      	60.651775      	61.452053      	62.357258      	62.72612       	63.22028       	64.85849       	64.97179       	65.471115      	63.151806      	63.173943      	63.166737      	62.805134      	62.34593       	63.278614      	62.851265      	63.27563       	63.01736       	63.0705        	62.40926       	62.91459       	62.67186       	62.45325       	63.4889        	62.816235      	62.71873       	63.547894      	64.47563       	63.92836       	63.314713      	64.64752       	63.391113      	63.486973      	62.91123       	63.774097      	63.221565      	63.077263      	63.659813      	63.446453      	63.559372      	62.950813      	63.361816      	63.840027      	63.202385      	63.170082      	63.205006      	63.15227       	62.9711        	62.965595      	63.591396      	62.687878      	64.05698       	63.196037      	64.26167       	
56.379242      	56.495235      	57.3613        	57.466473      	56.756615      	56.821598      	56.823887      	56.350307      	56.8608        	59.524796      	63.98333       	65.440796      	63.515606      	63.464787      	63.709194      	63.241352      	63.38608       	63.45526       	63.382545      	63.78892       	63.460983      	63.39173       	63.273006      	63.172173      	64.0061        	63.412384      	63.534992      	64.21564       	62.893127      	63.197178      	63.009254      	63.54099       	63.379524      	63.68958       	63.45763       	61.810326      	59.27863       	58.86577       	59.19829       	59.12184       	60.35114       	59.655014      	60.662735      	61.7572        	61.953598      	62.429653      	62.176052      	62.500893      	64.56656       	65.105865      	64.21187       	63.573364      	63.46817       	63.705013      	63.714764      	63.358437      	63.705498      	63.480167      	63.21248       	63.232708      	63.942654      	63.90754       	63.521214      	63.738182      	63.636078      	63.315533      	63.138268      	63.650764      	63.672867      	63.135414      	63.535854      	63.663696      	63.013916      	63.59722       	63.81884       	62.75813       	63.33819       	63.90253       	63.68992       	63.330833      	63.75432       	63.833477      	63.96122       	63.69045       	63.33138       	63.940426      	63.613346      	63.74915       	63.73396       	64.13335       	63.664673      	63.463142      	63.70458       	64.063705      	63.33592       	63.7322        	63.72188       	63.92069       	63.987946      	62.818657      	
56.789154      	56.748707      	57.72443       	57.606674      	57.170414      	56.45441       	56.75588       	56.676525      	57.304867      	58.375183      	62.835754      	65.62585       	63.900673      	63.980022      	63.789642      	63.98405       	63.43507       	63.451733      	63.69783       	63.29167       	63.546165      	63.328625      	63.00937       	63.456028      	63.228592      	63.349678      	63.130627      	62.971874      	63.4429        	63.486057      	62.706444      	63.794052      	63.352367      	63.408325      	63.3491        	64.18795       	60.729126      	61.556946      	61.954235      	61.636444      	62.527386      	62.1886        	63.291397      	64.92901       	63.458584      	65.53742       	65.332794      	64.12451       	63.85746       	63.8168        	63.46529       	63.56593       	63.628113      	63.362854      	63.224937      	63.49676       	62.919415      	63.0937        	63.465843      	63.098633      	63.429527      	62.854122      	63.285957      	63.122463      	62.96747       	63.321537      	62.840607      	63.20514       	62.9561        	63.864666      	64.46186       	63.589287      	63.110954      	63.870396      	64.03548       	64.18021       	63.24606       	63.55403       	63.571415      	64.17901       	63.78469       	63.539455      	63.758896      	63.9093        	63.753235      	63.8421        	63.463276      	63.741516      	64.04063       	63.377598      	63.9714        	63.379204      	63.173286      	64.20992       	63.76201       	64.19414       	65.70876       	63.11861       	64.33396       	63.62466       	
56.63887       	56.901905      	56.878265      	56.864674      	56.65019       	56.700897      	56.29582       	56.414104      	57.31994       	58.20533       	60.47809       	65.235         	64.31293       	63.913963      	63.62484       	63.728214      	63.855892      	63.89897       	64.07096       	63.502705      	63.86467       	63.526047      	63.690937      	63.849678      	63.339325      	63.8049        	64.24878       	63.755116      	63.289192      	63.834904      	63.620274      	63.668705      	63.534267      	63.883125      	64.286644      	63.788113      	64.113174      	63.68777       	63.717503      	63.540916      	63.72989       	63.801987      	63.73501       	63.489204      	63.413265      	63.852997      	63.612442      	63.51496       	63.17466       	63.58039       	63.70411       	63.396576      	63.141056      	63.563515      	63.20502       	63.5598        	63.512676      	63.043526      	63.423466      	63.131954      	63.670025      	63.24841       	63.650513      	63.807377      	63.33732       	63.72861       	63.586945      	63.54215       	63.499767      	63.528614      	63.81117       	63.504753      	63.73649       	63.695576      	63.284122      	63.46149       	63.58523       	63.647255      	63.663773      	63.31773       	63.452553      	63.550144      	63.06117       	63.604523      	63.852005      	63.20747       	63.983067      	63.021164      	63.531696      	63.733337      	63.551308      	63.424614      	63.445465      	65.14201       	62.818974      	63.551704      	63.03495       	63.594254      	64.98871       	63.138126      	
56.57297       	56.923275      	56.938126      	56.731926      	56.49916       	56.65648       	57.470795      	56.385532      	57.273945      	57.468967      	60.467457      	62.83919       	65.96387       	63.997963      	63.772358      	63.58162       	63.873085      	63.774902      	63.925457      	63.582657      	63.418358      	63.680584      	63.24853       	63.598248      	63.252823      	64.37389       	64.01521       	63.914383      	63.48214       	63.5627        	63.96809       	63.937813      	63.6864        	64.08366       	63.88212       	63.851723      	64.176285      	63.90473       	64.19854       	63.83901       	63.71695       	63.95143       	63.75924       	63.47801       	63.915985      	63.313988      	63.478943      	63.40118       	63.731865      	64.04937       	63.098103      	63.172756      	64.09778       	63.580814      	63.436264      	62.700718      	63.568756      	63.294415      	63.418034      	63.58655       	62.84952       	63.208775      	63.740772      	62.67701       	63.387405      	63.15143       	63.36814       	64.05441       	62.73516       	62.937714      	63.148228      	63.250675      	63.461483      	63.05694       	64.225266      	63.157722      	63.79057       	62.785095      	63.6686        	63.741302      	63.005623      	63.246693      	63.74475       	62.973053      	63.12443       	63.39128       	63.214584      	64.30103       	62.653503      	63.093525      	63.61143       	63.439285      	63.72425       	63.073338      	63.702652      	63.396324      	63.180065      	63.610626      	63.37633       	63.471546      	
56.781708      	56.64989       	56.94084       	56.930454      	56.733223      	56.997723      	56.332382      	56.292645      	57.12219       	57.422047      	59.26244       	62.162132      	65.771286      	63.730247      	63.92885       	63.86082       	63.890064      	63.917606      	63.856426      	63.796024      	63.729538      	63.738537      	63.415367      	63.68052       	63.408966      	63.362522      	63.8318        	63.062363      	63.419502      	63.51955       	63.284225      	63.18653       	63.767654      	63.427753      	63.13197       	63.451862      	63.368023      	63.433334      	63.150387      	63.063416      	63.70196       	63.25039       	63.452         	63.165157      	63.318848      	63.249283      	63.01325       	63.333714      	63.292446      	63.165634      	63.52082       	63.167313      	62.83263       	63.10098       	62.872833      	63.91539       	63.525097      	63.52862       	63.787918      	63.562305      	63.565422      	63.59486       	63.663563      	63.865486      	63.400608      	64.10807       	63.80177       	63.763794      	63.859818      	63.464222      	63.442055      	63.58009       	63.789085      	63.517033      	63.356884      	64.07379       	63.689453      	63.653046      	63.537525      	63.248367      	63.32136       	63.167397      	63.530552      	63.71389       	62.76821       	63.549324      	63.410816      	63.23252       	63.54494       	63.678215      	63.25527       	63.069256      	63.294117      	63.690933      	64.10052       	63.41815       	63.46037       	63.673058      	63.122948      	63.34279       	
56.56047       	56.71139       	56.810173      	57.4354        	57.32557       	56.714916      	56.402935      	56.966938      	57.87329       	55.734024      	58.051205      	61.93011       	64.72674       	64.64089       	63.88032       	64.45961       	64.45287       	63.772163      	64.07669       	64.399765      	64.13978       	63.841766      	63.980988      	63.68679       	63.957325      	63.846806      	63.474636      	63.991898      	63.987755      	63.878563      	64.06094       	63.523903      	64.000084      	63.952972      	64.01679       	64.086784      	63.977848      	64.08553       	64.072945      	63.99807       	64.170425      	64.09257       	63.817543      	63.55475       	63.38494       	63.29007       	63.382984      	63.722908      	63.640938      	63.95427       	63.723186      	63.701622      	63.619164      	63.784515      	64.046616      	63.682796      	63.85975       	63.684586      	63.74044       	63.543114      	64.09743       	64.01655       	63.559204      	63.78426       	63.653954      	63.52486       	64.05462       	63.91178       	64.06336       	63.851845      	63.702644      	63.644215      	63.521862      	63.75792       	63.924553      	64.855705      	63.88625       	63.484127      	63.83389       	63.852516      	63.23728       	64.06273       	63.820667      	64.01625       	63.703106      	64.057236      	64.27043       	64.13865       	63.46477       	63.850273      	63.531563      	63.456154      	63.709057      	63.2687        	63.403557      	63.73228       	63.952297      	63.73014       	62.937607      	63.43637       	
56.47136       	56.900124      	56.947548      	57.299553      	57.281265      	56.477943      	57.09395       	57.271034      	57.12109       	56.737278      	57.799957      	59.62553       	63.29485       	65.726524      	64.097916      	63.953976      	63.835827      	63.88674       	64.341034      	64.02549       	64.186874      	64.396225      	64.071335      	63.920063      	63.868164      	64.10417       	63.709835      	64.13991       	64.02203       	63.940376      	64.00987       	63.145016      	64.02654       	63.6479        	63.35086       	64.21968       	63.714363      	63.480698      	63.92744       	63.403584      	63.22408       	63.645348      	63.635334      	63.78153       	63.850376      	63.88328       	64.14091       	63.344444      	63.771267      	63.58071       	63.50467       	63.58123       	63.565758      	63.93801       	63.20874       	63.830204      	63.7893        	63.559456      	63.930313      	63.45181       	64.06696       	63.63225       	63.924732      	63.971817      	63.619137      	63.826557      	64.16533       	63.776524      	63.88608       	64.04978       	63.972366      	63.94097       	63.83473       	64.23638       	63.830578      	63.879402      	63.69957       	64.234604      	64.21049       	63.807156      	63.71622       	64.11904       	63.665985      	63.85906       	63.916676      	63.236008      	63.977364      	63.74277       	64.01345       	63.69252       	64.073166      	63.910046      	64.33435       	63.584324      	63.412766      	64.25235       	63.35996       	63.770477      	64.170425      	63.71029       	
57.29015       	57.57002       	57.569424      	57.221222      	57.051704      	58.79407       	57.49184       	58.609722      	59.03626       	58.24497       	59.921246      	59.994987      	65.423935      	64.64424       	63.97848       	64.10499       	64.09349       	63.949852      	63.928555      	63.788727      	63.852722      	63.947327      	64.00468       	63.84791       	64.10136       	63.778893      	64.18521       	63.97069       	63.87962       	64.29663       	64.31609       	64.120926      	63.959976      	63.914223      	63.99612       	63.666317      	63.427307      	64.00724       	64.044365      	63.464767      	63.493088      	63.712086      	63.221317      	63.84462       	63.79946       	63.589275      	63.25762       	63.44153       	63.95038       	63.710518      	63.766155      	63.89992       	63.905952      	63.81162       	63.97095       	63.892323      	63.874134      	63.617252      	63.847492      	63.7335        	63.72859       	63.856476      	63.84159       	63.916935      	63.8158        	63.93667       	63.708996      	63.87453       	63.93822       	63.632584      	63.598877      	63.784527      	63.79957       	64.024475      	64.13776       	64.078514      	64.07906       	63.902634      	63.957497      	64.292915      	63.92138       	63.773148      	63.931217      	63.822247      	64.00885       	63.812714      	64.271164      	63.94595       	63.810463      	63.964592      	63.78327       	63.819756      	63.84853       	64.021164      	63.450638      	63.901794      	63.67008       	64.0376        	63.860767      	63.597527      	
57.93218       	57.904316      	57.61883       	58.370235      	58.710648      	58.785496      	59.075825      	61.552162      	60.824203      	61.167492      	61.78531       	62.149994      	66.14675       	63.804485      	64.0917        	64.34224       	63.99561       	63.721287      	63.41843       	63.739124      	63.400448      	64.32398       	64.06749       	64.19099       	64.073425      	63.779938      	63.98788       	63.858574      	64.314644      	64.14155       	63.842354      	63.712193      	64.10804       	64.098404      	63.821915      	63.852943      	64.203575      	63.934605      	63.894108      	64.031136      	63.4678        	63.72413       	63.33887       	63.415184      	63.601196      	63.678967      	63.78215       	63.22422       	63.552456      	64.21342       	63.9345        	63.763367      	63.598274      	64.09182       	63.81471       	63.92415       	63.79419       	63.681816      	63.800125      	63.909508      	63.589         	63.96419       	63.34963       	63.53028       	63.993526      	63.64317       	63.782387      	63.72236       	63.921707      	64.04976       	63.378757      	63.897984      	63.849777      	63.584034      	64.18901       	63.83821       	63.91477       	63.721973      	64.20988       	64.087166      	63.804375      	63.991917      	63.70284       	63.96679       	64.283936      	63.87138       	64.05048       	63.896523      	63.99766       	63.943913      	63.86325       	63.84826       	64.02889       	63.833298      	64.337234      	63.88771       	64.02998       	64.346436      	63.926247      	63.79772       	
58.532528      	58.70137       	59.28668       	59.841427      	59.88381       	60.36063       	60.987667      	62.449085      	63.510242      	64.814804      	65.734375      	64.17337       	64.09054       	63.742214      	63.28237       	64.029045      	63.34017       	64.01977       	63.57381       	63.737534      	63.916096      	63.868137      	64.02397       	63.9458        	63.75344       	63.688084      	63.790024      	63.745377      	64.016525      	63.858536      	63.663887      	64.05484       	63.74325       	63.58134       	63.98134       	63.50725       	63.990902      	63.815166      	63.237083      	64.01788       	63.530426      	62.966263      	63.23433       	63.64872       	63.401917      	63.707764      	63.941654      	63.75098       	63.586052      	63.87457       	63.88421       	63.345028      	63.999527      	63.82258       	63.639378      	63.995274      	63.754436      	63.73969       	63.62341       	63.83398       	63.78787       	63.869602      	63.941463      	63.78855       	63.97558       	63.53944       	63.665955      	63.786457      	63.525776      	63.794266      	63.95172       	63.910954      	63.715527      	63.76303       	63.74029       	63.679268      	64.01418       	63.978947      	64.05069       	63.777588      	63.78572       	63.87349       	63.85868       	63.942284      	63.492313      	63.926437      	63.671547      	64.03881       	63.982273      	63.965523      	63.894157      	64.04793       	64.061         	63.961823      	64.06794       	64.058266      	64.16688       	63.768707      	64.19634       	63.9645        	
60.66603       	60.398407      	61.745583      	63.26633       	63.342236      	62.85663       	64.22708       	65.489845      	64.263885      	64.31862       	63.814083      	64.64657       	64.23021       	64.135216      	64.09436       	64.03721       	64.03574       	64.20833       	63.823154      	64.080475      	63.77821       	63.711174      	64.09852       	63.748764      	63.749306      	63.59903       	63.921997      	64.074196      	63.33667       	63.697308      	63.818153      	63.726425      	63.885876      	64.21453       	64.013954      	64.012215      	63.81954       	63.662636      	64.16349       	64.14073       	63.722305      	63.766647      	64.03725       	63.77288       	64.02294       	63.54887       	64.03802       	63.91275       	63.938633      	64.25428       	63.579006      	63.82503       	63.483658      	63.9027        	63.755272      	63.329464      	63.6129        	63.51897       	63.930042      	63.588203      	63.55737       	64.01293       	63.893314      	63.41115       	63.668034      	63.422184      	63.659         	64.16189       	63.14375       	63.943016      	63.918247      	63.657814      	63.673744      	63.440235      	63.948574      	63.613876      	63.945835      	64.37515       	63.517082      	63.7562        	64.133736      	63.67506       	63.833496      	63.49508       	64.17962       	63.91484       	64.057045      	64.34699       	64.10439       	64.33767       	64.04743       	64.18078       	63.801598      	64.24122       	63.848022      	63.61702       	64.50093       	63.9921        	63.8883        	64.02399       	
63.107037      	63.94683       	64.20116       	65.46414       	65.21071       	64.4553        	64.574814      	64.52211       	64.18497       	64.40188       	63.937943      	64.17507       	64.26681       	63.637558      	64.19087       	63.9851        	63.68625       	63.834763      	64.18519       	63.87606       	63.944767      	64.10568       	63.74108       	63.920593      	64.411446      	64.46666       	64.40033       	64.121506      	64.20906       	64.13636       	64.4433        	64.42139       	64.44928       	64.15499       	64.56222       	64.303375      	64.14306       	64.01191       	64.08441       	64.12071       	63.876892      	63.558117      	63.962864      	63.937973      	64.134285      	64.45888       	64.30727       	64.21883       	64.19374       	64.36131       	64.290794      	64.39308       	64.16221       	64.13652       	64.19115       	64.60956       	64.33178       	64.644165      	64.05252       	64.44946       	64.36405       	64.50343       	64.291916      	64.23918       	64.45267       	63.841415      	63.873913      	63.563793      	63.864067      	63.767284      	64.50214       	64.04792       	64.19185       	63.755047      	64.09136       	64.15957       	64.17942       	64.09097       	64.56981       	64.055534      	64.22425       	64.21273       	64.405365      	64.16065       	63.49611       	64.00119       	63.894737      	63.569862      	64.14131       	64.33765       	64.15775       	64.08807       	64.3718        	63.796757      	63.97857       	63.721394      	63.969032      	64.30739       	63.99793       	64.554825      	
63.311005      	63.15728       	63.556908      	63.882328      	63.632328      	64.190704      	64.42972       	64.24277       	63.96848       	63.560127      	64.60082       	63.905018      	63.939617      	64.55615       	63.938137      	64.27534       	64.14743       	64.08185       	64.32548       	63.788612      	64.59504       	64.52218       	64.37855       	64.01548       	64.48839       	64.215         	64.31056       	64.58154       	64.332436      	63.610954      	64.04815       	64.92687       	63.816227      	63.9688        	63.754887      	64.26648       	63.9977        	63.670055      	64.10277       	63.74106       	63.657112      	63.616226      	63.54646       	63.813362      	63.500317      	63.78137       	63.515774      	63.50478       	63.599335      	63.34246       	63.452015      	63.585518      	63.808064      	63.617863      	63.588234      	63.686455      	63.825016      	63.432262      	63.76952       	63.218483      	63.793045      	63.768887      	63.405792      	63.487156      	63.87345       	63.409         	63.659214      	63.54453       	63.98217       	63.300865      	63.252087      	63.678146      	63.396397      	63.213493      	63.72796       	63.116074      	63.710175      	63.20533       	64.0843        	64.25233       	63.751343      	63.5794        	63.82178       	64.08422       	64.24025       	64.114395      	64.24609       	64.12528       	64.32006       	64.25034       	63.791943      	64.27948       	63.747303      	63.964516      	64.10779       	64.32803       	64.15718       	64.321236      	64.21779       	64.37957       	
63.64822       	63.417244      	63.084297      	63.672375      	64.421295      	63.425278      	64.0348        	63.596226      	64.064705      	63.779945      	63.878304      	64.1772        	64.37885       	64.18075       	64.190926      	64.00303       	64.034294      	64.016556      	63.683586      	64.01202       	64.01343       	63.832302      	64.02076       	64.239006      	64.05735       	64.15501       	64.085464      	64.172295      	64.10527       	64.111885      	64.17425       	63.86173       	63.860992      	63.863182      	64.37888       	63.687897      	63.77128       	63.723873      	64.15087       	64.35779       	63.62745       	63.955338      	64.21967       	63.533714      	63.563976      	64.421745      	62.794147      	62.89727       	64.025375      	66.024666      	64.95155       	63.95659       	64.616356      	64.185036      	63.720306      	64.136345      	64.177376      	63.62744       	63.89096       	64.45959       	64.36869       	63.753185      	63.92794       	63.912495      	64.05642       	64.04466       	64.07696       	64.05998       	64.13137       	64.31557       	64.031906      	64.23316       	64.550095      	63.89528       	63.803265      	64.087364      	63.92897       	64.15375       	63.936974      	63.952145      	64.207184      	64.12073       	64.58273       	64.01137       	64.11108       	64.246185      	63.99223       	64.23079       	64.18268       	63.85597       	64.243004      	63.46424       	63.23932       	64.24027       	63.873817      	64.12739       	63.80888       	64.033714      	64.03592       	63.828148      	
62.82869       	63.24535       	63.988106      	63.60042       	64.034294      	63.810932      	63.35236       	63.87738       	63.701035      	63.903652      	63.820103      	64.1084        	64.1976        	64.34609       	64.194855      	64.026184      	64.32441       	64.134926      	64.1797        	64.01274       	63.85357       	63.463436      	64.21839       	63.873615      	64.06993       	64.14585       	64.435196      	64.44223       	64.463356      	64.442055      	64.365654      	63.770954      	64.02331       	64.42488       	64.03092       	64.30593       	64.070625      	63.946754      	64.398224      	64.03645       	64.3136        	64.21522       	63.9441        	64.0244        	64.17505       	63.78864       	64.62342       	63.481148      	62.932266      	64.27098       	64.3553        	64.314705      	64.461266      	63.76406       	64.28018       	64.25446       	64.1009        	64.50364       	64.11615       	64.17239       	64.43739       	64.55439       	64.34063       	64.1067        	64.47051       	64.27254       	64.109406      	64.4236        	64.182365      	64.36988       	64.08651       	64.0644        	64.43988       	64.31338       	64.15926       	64.247475      	64.293144      	64.63649       	64.24476       	64.41334       	64.28649       	64.30587       	64.322586      	64.42438       	64.42172       	64.02953       	64.05507       	64.54579       	64.11059       	64.317245      	64.44676       	64.21831       	64.48168       	64.20556       	64.19228       	64.43531       	64.475334      	64.06046       	64.60228       	64.293686      	
63.73391       	63.39901       	62.879112      	63.776897      	63.965782      	64.08631       	64.56857       	63.640984      	64.21447       	63.683807      	63.162395      	64.20771       	64.169525      	63.623207      	63.723392      	64.23118       	64.38588       	63.849213      	64.13085       	64.09244       	64.09243       	64.18468       	63.98168       	64.39747       	63.933704      	63.87747       	64.3289        	64.12635       	64.691986      	64.20094       	64.51574       	64.16504       	63.91142       	64.090706      	64.067535      	64.211395      	64.09434       	64.03637       	64.09571       	64.24562       	63.989056      	63.586807      	63.36162       	64.17959       	63.891438      	63.820717      	63.78024       	63.641438      	63.31391       	63.57276       	63.2185        	63.93136       	63.670982      	63.66118       	63.794792      	63.893936      	63.662327      	63.439754      	63.748024      	63.422203      	63.889977      	63.54805       	63.30678       	63.994118      	63.76595       	63.628582      	63.671825      	63.730186      	63.84          	63.56586       	63.53649       	64.125084      	63.841084      	63.436604      	63.73015       	63.914497      	63.80997       	64.081726      	63.326824      	63.80764       	63.730225      	63.882576      	63.407127      	63.950108      	64.08775       	63.83125       	64.158585      	64.04938       	64.074615      	64.38056       	64.228615      	63.493347      	64.13714       	63.478672      	63.639404      	63.955036      	63.48474       	63.59558       	63.724262      	63.802017      	
63.157852      	63.28908       	63.345577      	63.512646      	63.799152      	63.710403      	63.908886      	64.04663       	63.77316       	63.758175      	63.64644       	63.80789       	63.588627      	63.82374       	63.693913      	63.83004       	63.755657      	63.809105      	64.24393       	63.86385       	63.489357      	64.24812       	63.792877      	63.99312       	64.145386      	63.844032      	63.70001       	63.449486      	63.737015      	63.843067      	63.881424      	63.824028      	63.641808      	63.865307      	63.939823      	63.57891       	63.709476      	64.15707       	63.47883       	63.766727      	63.736748      	63.51389       	63.18336       	63.699924      	63.68963       	64.06225       	63.497936      	63.895264      	63.677204      	63.643192      	63.872692      	63.412262      	63.342484      	63.56438       	63.895874      	63.467335      	63.821484      	63.419605      	63.34087       	63.679165      	63.37409       	63.535206      	63.790535      	63.6351        	63.993908      	63.556515      	63.538406      	63.83886       	63.39222       	63.350906      	63.44266       	63.595207      	63.786316      	63.778645      	63.42771       	63.537277      	63.735466      	63.692616      	63.610565      	63.568523      	63.356617      	64.20586       	63.604347      	63.792255      	63.68343       	63.48976       	63.85504       	63.636135      	63.69439       	63.28831       	63.457523      	63.5475        	63.185127      	63.1362        	63.45641       	63.262306      	63.636894      	63.356796      	63.423008      	63.57394       	
63.00153       	63.39876       	63.943764      	63.368614      	63.73413       	63.687923      	63.602245      	63.31304       	63.121098      	63.203426      	63.388775      	63.09103       	63.304417      	63.89718       	63.37743       	63.034004      	63.045963      	63.66595       	63.205185      	63.24612       	63.37543       	63.550083      	64.319244      	63.087696      	63.083824      	63.277283      	63.488743      	62.960785      	63.042915      	63.170612      	63.29555       	63.382046      	63.250435      	63.42538       	63.558125      	63.222935      	63.87615       	63.186726      	63.650208      	63.180107      	63.48788       	63.501766      	62.898834      	63.142704      	63.22974       	63.247204      	63.248756      	63.3532        	63.422424      	63.03229       	63.1065        	62.98378       	63.613853      	63.119614      	63.08037       	63.873978      	64.415985      	63.051464      	62.833103      	63.548595      	63.147602      	62.915066      	63.45304       	63.11158       	63.141415      	63.229546      	63.14107       	63.340134      	63.435932      	62.992756      	63.061523      	63.167038      	63.000473      	63.225327      	62.849396      	63.40204       	63.531208      	63.380207      	63.2325        	63.453396      	63.67047       	62.808643      	63.405273      	63.210903      	63.296875      	63.278454      	63.49019       	64.39668       	62.771263      	63.252396      	63.53039       	63.39527       	63.378136      	63.41721       	63.40489       	63.229         	63.30297       	63.219852      	63.83204       	63.32796       	
62.942287      	62.96835       	63.319305      	63.308544      	63.44087       	63.93626       	63.6028        	62.9398        	63.195484      	63.70606       	63.54586       	63.373913      	63.27669       	63.90736       	63.819775      	63.979687      	63.66381       	63.81458       	63.35039       	63.77294       	63.407978      	63.40489       	63.58979       	63.83716       	63.74073       	63.611755      	63.65504       	64.01972       	63.75355       	64.26526       	63.78047       	63.454144      	63.974724      	63.30394       	63.663647      	63.625813      	63.179436      	63.95393       	64.090744      	63.32007       	63.68398       	63.46266       	63.528954      	63.48171       	63.24916       	64.06899       	63.448868      	63.5637        	63.574234      	63.284584      	63.221813      	63.149776      	63.698185      	63.254387      	63.387978      	63.535835      	63.573685      	63.670998      	63.254906      	63.3403        	63.33836       	63.435493      	63.06232       	63.212208      	62.98437       	63.08416       	63.474957      	63.115044      	63.247746      	63.237583      	63.077515      	62.758484      	63.599335      	63.1921        	62.895115      	63.40409       	63.107304      	63.399567      	64.72736       	62.536533      	62.77314       	63.114082      	63.142357      	63.320587      	62.788303      	63.11223       	63.074516      	62.902977      	63.580914      	63.037655      	63.45124       	63.263958      	63.096176      	63.602184      	63.169357      	63.567085      	63.53101       	63.45317       	63.160675      	63.315205      	
63.01296       	62.982735      	62.956707      	62.7961        	62.91071       	63.017895      	63.21994       	63.381783      	63.05772       	63.354317      	63.016186      	62.96564       	63.188404      	63.016098      	63.434322      	63.51782       	63.298008      	63.162624      	63.066612      	63.26254       	62.968555      	63.23074       	63.747         	63.059227      	63.69237       	63.57757       	63.42456       	63.181686      	63.5852        	63.0829        	63.688526      	63.182606      	63.493637      	63.65783       	62.70886       	63.458725      	63.636414      	63.89316       	63.436646      	63.384495      	63.910976      	63.192726      	62.94915       	63.287758      	62.735226      	63.291607      	63.185535      	63.417004      	63.029457      	63.23713       	63.57223       	63.22655       	63.21219       	63.26747       	63.10374       	63.388126      	63.199017      	63.690548      	63.45579       	63.01598       	63.285007      	63.657932      	63.67279       	63.213486      	63.37312       	63.3598        	63.24707       	63.46826       	63.226337      	63.289757      	63.504204      	63.03283       	62.47008       	60.234436      	60.132256      	60.985554      	61.323128      	61.986107      	63.989704      	65.851685      	64.098495      	64.16267       	63.540955      	63.63386       	63.535397      	63.766304      	63.421707      	63.56419       	63.223896      	63.504276      	63.55901       	63.62306       	63.33507       	63.01468       	63.38402       	63.303944      	63.4756        	63.608917      	63.567337      	63.200474      	
63.227993      	63.23611       	63.439663      	63.378326      	63.55294       	64.02854       	63.21057       	63.090454      	63.186466      	63.44297       	63.058395      	63.3167        	63.16751       	63.462418      	62.99501       	63.600636      	63.242474      	63.525932      	63.256935      	64.24535       	62.835094      	63.186806      	63.302795      	63.06876       	63.193996      	63.536564      	63.128464      	63.283817      	63.879314      	63.328766      	63.06587       	63.744442      	63.301083      	63.08985       	63.30188       	63.477615      	63.044792      	63.34714       	63.39103       	63.60052       	63.39958       	63.360947      	63.31276       	62.918373      	63.319878      	62.954296      	63.36347       	63.342815      	63.2858        	63.428795      	63.663887      	63.529087      	63.320072      	63.464306      	63.06094       	62.989162      	63.375492      	63.126934      	63.54715       	63.053593      	63.189766      	63.0683        	63.221424      	63.270897      	63.3575        	63.50472       	63.19364       	62.601234      	60.976482      	60.57488       	59.122227      	58.36146       	58.49284       	57.520126      	56.985157      	56.638786      	56.78944       	57.656242      	60.774826      	65.06282       	63.538822      	63.32919       	63.326         	63.308308      	63.547783      	63.40053       	63.81397       	63.77471       	63.39073       	64.1193        	62.970116      	63.996258      	63.36268       	62.98426       	63.067616      	64.072235      	64.1785        	63.196705      	63.173317      	63.79137       	
62.945244      	62.92934       	62.874443      	63.431812      	64.09042       	62.86306       	63.20519       	62.781326      	63.00042       	63.023         	63.162422      	63.27996       	63.24516       	63.239265      	63.211834      	63.038708      	63.19734       	63.29568       	63.059853      	62.89842       	62.88779       	63.410034      	62.902702      	62.832176      	63.35229       	62.61287       	62.778297      	62.981316      	63.01149       	63.077408      	63.003063      	63.10506       	63.343746      	63.24418       	63.38393       	63.119053      	62.861614      	63.444416      	63.463062      	63.784805      	63.169384      	63.08171       	63.35514       	63.19437       	63.471424      	62.973568      	63.488422      	63.09631       	63.68972       	62.59696       	62.843044      	63.356236      	62.358383      	63.729973      	63.293716      	63.33598       	62.26392       	62.85125       	63.067635      	64.99217       	62.137302      	62.66978       	63.466015      	63.007263      	62.4559        	60.281055      	58.77509       	57.77307       	57.292732      	57.207035      	57.02452       	56.38452       	56.213707      	56.77745       	56.016083      	55.982796      	56.064445      	57.262142      	58.997726      	64.69024       	63.425034      	62.969376      	63.046345      	62.670128      	63.004314      	63.331444      	62.91861       	64.24299       	62.639927      	63.007523      	63.371315      	63.66047       	63.068645      	63.00292       	62.649002      	63.421833      	63.29059       	63.0621        	63.228306      	63.81323       	
62.84404       	63.447933      	63.01762       	62.220505      	63.056877      	63.081795      	62.792103      	63.133423      	62.778538      	63.209026      	62.622425      	62.970047      	63.36276       	62.9505        	62.98721       	62.998997      	63.798306      	63.386818      	63.125374      	63.229572      	63.395702      	63.235535      	63.109745      	63.09918       	63.783905      	63.14829       	62.754356      	63.224392      	62.89549       	62.82845       	63.44351       	62.690395      	63.129944      	63.142986      	63.763874      	63.253033      	63.103497      	63.151         	63.358475      	63.439903      	62.934513      	63.328976      	63.113525      	62.989742      	62.585308      	63.092438      	63.175255      	63.47891       	63.10714       	62.86429       	63.85756       	62.52402       	62.76813       	63.07197       	62.952507      	62.82293       	63.053185      	63.8332        	63.04982       	63.270535      	60.5102        	59.295624      	59.651886      	58.01796       	57.312748      	56.70396       	56.922726      	56.472603      	56.51297       	56.470745      	56.378082      	56.279255      	57.02319       	56.15703       	55.70759       	56.169533      	55.779816      	57.924088      	58.74817       	62.389214      	65.53239       	63.360203      	63.317738      	63.321068      	63.588978      	63.718285      	63.17951       	63.748455      	63.246822      	63.76358       	63.38428       	63.475067      	63.49231       	63.451363      	62.718597      	63.297356      	63.474537      	63.196262      	63.425095      	63.944317      	
62.32305       	62.61572       	63.450405      	64.16049       	63.53073       	63.58752       	64.0365        	62.903427      	63.60093       	63.511864      	63.344193      	63.648678      	62.744823      	62.91238       	63.13402       	63.723198      	63.597187      	63.932842      	63.141743      	62.194496      	63.10402       	63.219532      	62.643635      	62.84302       	62.48503       	63.29886       	62.78838       	63.467262      	62.518818      	63.100674      	63.086155      	62.84766       	62.944016      	63.236137      	63.056427      	63.424496      	63.92081       	62.212803      	62.65785       	64.593376      	62.595936      	63.107513      	63.906208      	63.364403      	63.226227      	62.9357        	62.886883      	63.413544      	63.413174      	63.65488       	62.42678       	63.62056       	63.952576      	63.352024      	63.670437      	61.373257      	60.504387      	58.26945       	57.522717      	58.183533      	56.786373      	56.684727      	57.616077      	56.585255      	56.229813      	57.039368      	56.459057      	56.573658      	56.481846      	56.608295      	57.04839       	56.654045      	57.005814      	56.916416      	56.36136       	56.294266      	56.439716      	56.961433      	57.680214      	61.134518      	64.44064       	64.0773        	63.948742      	63.46701       	63.646786      	63.42793       	64.11008       	63.573814      	63.51264       	62.96198       	63.46253       	63.20652       	63.18466       	63.723125      	63.607986      	64.83659       	62.977028      	63.44282       	63.449383      	63.86116       	
62.439564      	62.36468       	62.932625      	62.95821       	62.758743      	63.12456       	62.920868      	62.93549       	63.111275      	63.1018        	62.904182      	62.94623       	63.630894      	62.606236      	63.509792      	63.27177       	63.601685      	63.390915      	63.718723      	63.487564      	63.586926      	63.95016       	63.11846       	63.328632      	63.2092        	63.784763      	63.02218       	63.097538      	63.06174       	63.529114      	63.426624      	63.277668      	63.581673      	63.314495      	63.55297       	62.96449       	62.919373      	64.15186       	62.810993      	62.568108      	64.41468       	62.061882      	63.395126      	64.50218       	63.588413      	63.79784       	63.13788       	63.445908      	63.396152      	62.934875      	63.60499       	64.12992       	60.280518      	58.577118      	57.699886      	57.82627       	57.48925       	56.864822      	56.631275      	56.549103      	56.659477      	56.423523      	56.699894      	57.32491       	56.690083      	56.521614      	56.5411        	56.75292       	56.87748       	56.75955       	56.720547      	57.114624      	56.888416      	56.874454      	56.563892      	56.69062       	56.572296      	56.054043      	58.633568      	59.61007       	63.192898      	63.39661       	62.664875      	63.32551       	62.941868      	63.197094      	62.8399        	62.986942      	63.161137      	63.28521       	62.860046      	63.015484      	62.670166      	63.2226        	62.872334      	63.963955      	64.54322       	61.880764      	62.559517      	62.810863      	
62.60789       	62.463844      	62.846237      	63.49852       	63.299503      	63.146076      	63.066277      	63.25543       	63.53973       	63.71077       	63.857975      	64.02334       	63.235382      	63.54648       	63.17773       	63.4001        	63.554344      	63.695095      	63.141037      	63.547226      	63.60566       	63.09543       	63.243435      	63.378532      	64.433426      	65.77009       	63.89024       	63.589497      	63.872063      	63.83326       	63.417095      	63.829964      	63.18545       	64.25331       	63.152477      	63.30699       	63.9345        	64.190544      	63.11497       	63.52982       	63.292088      	63.69309       	63.374065      	63.490364      	64.096146      	62.399113      	62.392193      	59.455555      	58.567146      	59.151062      	58.112404      	58.012035      	56.917587      	57.207123      	56.652496      	56.353096      	57.793976      	56.7181        	56.689514      	56.68066       	56.8288        	56.986664      	56.625412      	56.874435      	56.42432       	57.123825      	56.869705      	57.080177      	57.323067      	56.72009       	56.940826      	56.91976       	57.518654      	57.2587        	56.678665      	55.64037       	56.812054      	57.326313      	56.34181       	59.427425      	61.286022      	65.40814       	62.57836       	62.547012      	62.82473       	63.485077      	62.62401       	62.786835      	63.300358      	63.369617      	63.183712      	63.084538      	63.029926      	64.01567       	62.944897      	65.844826      	63.602688      	64.36143       	63.421318      	63.441013      	
62.446274      	62.482216      	62.996586      	63.01399       	63.55249       	62.466156      	62.82119       	63.026604      	63.065895      	62.859894      	62.89526       	62.846752      	62.667088      	63.007675      	62.971725      	63.142014      	62.79525       	63.176655      	63.280716      	63.208508      	62.847862      	63.22937       	62.802837      	63.083504      	62.803806      	63.360203      	62.925304      	63.08295       	63.203377      	63.296688      	63.438213      	63.661777      	64.02827       	63.781216      	63.11431       	63.448154      	64.17927       	63.29473       	63.72941       	63.90064       	63.592514      	63.30353       	62.799797      	60.695         	59.75349       	58.510456      	57.85483       	56.870358      	56.788357      	56.762295      	56.57934       	56.788265      	57.1874        	56.41057       	56.45276       	56.601097      	56.508587      	56.396618      	56.7448        	56.811714      	57.421516      	56.645214      	56.98464       	56.77529       	56.898872      	57.24214       	57.05903       	57.03587       	57.277843      	56.587605      	57.111874      	57.134197      	57.1462        	56.97399       	57.998695      	57.214413      	57.492477      	55.765884      	58.340004      	57.06859       	62.52375       	65.05078       	64.10238       	63.80288       	63.58211       	63.64524       	64.27469       	63.06544       	63.278545      	64.03198       	63.5663        	64.05646       	64.69262       	64.35679       	63.458237      	63.255184      	63.87133       	63.45794       	63.198868      	64.04835       	
62.503136      	62.712482      	63.102848      	63.35537       	63.075073      	63.051052      	63.103516      	63.507336      	63.33861       	63.227226      	62.78945       	63.05223       	62.960835      	63.088287      	63.572784      	63.43344       	63.602356      	63.368134      	63.165222      	63.294785      	63.305595      	63.553623      	63.309597      	62.928444      	63.3649        	63.211166      	63.67682       	63.23104       	63.204327      	63.178917      	63.179123      	63.647903      	64.616234      	63.51251       	63.393387      	62.76039       	63.320396      	63.400158      	63.69797       	63.487484      	63.50546       	63.514137      	59.221973      	56.91572       	56.405197      	56.314915      	56.48888       	57.098373      	56.091255      	57.1571        	56.272064      	56.692802      	56.313625      	56.36493       	56.569817      	56.501827      	56.835094      	56.885582      	56.910313      	56.658623      	56.342102      	57.09216       	57.00496       	56.41716       	57.07614       	56.187798      	56.87085       	56.812202      	57.00073       	57.391254      	56.901924      	57.223583      	57.3826        	56.941086      	57.451473      	56.788097      	55.859493      	56.832386      	56.542236      	57.725876      	62.012268      	63.94485       	64.59993       	63.57275       	63.282173      	63.537006      	63.69725       	63.651073      	63.182053      	63.93465       	63.353283      	63.32222       	63.335888      	63.01852       	62.872936      	63.020416      	64.38307       	63.29957       	64.13581       	62.97389       	
62.561768      	62.812954      	63.099197      	63.16385       	62.880272      	62.578438      	62.83544       	62.80295       	62.670273      	62.76395       	62.962193      	62.535343      	63.1783        	63.75603       	63.742794      	63.491127      	63.2158        	63.632313      	63.400005      	64.361946      	63.656975      	63.920162      	64.9765        	65.73362       	63.893295      	63.65937       	63.871746      	63.684864      	63.174046      	63.131966      	64.25324       	63.62804       	63.969654      	63.37147       	63.28877       	62.997433      	63.62468       	63.523376      	63.052834      	63.482975      	62.967537      	60.32304       	57.818928      	56.758396      	56.418324      	55.926163      	56.11111       	56.875076      	56.794586      	57.206406      	56.800964      	56.85689       	57.290466      	57.31089       	56.72645       	57.223923      	57.099445      	57.338554      	56.707733      	57.539005      	59.158157      	57.362206      	57.548138      	57.050518      	57.087914      	57.366985      	57.499878      	56.67416       	57.580795      	56.367134      	57.24826       	56.9059        	57.18873       	58.18963       	56.455498      	56.824604      	57.081596      	56.26942       	57.10887       	57.76427       	60.978176      	64.0015        	65.0819        	63.68009       	63.407475      	63.425774      	63.75135       	64.53198       	63.904285      	63.251778      	63.412308      	63.21696       	63.38059       	63.292934      	63.92133       	63.384804      	63.793053      	63.367012      	63.140434      	63.3497        	
62.61857       	63.0063        	63.27934       	64.15289       	63.472694      	63.803356      	63.491364      	63.60084       	64.193184      	63.330345      	63.454365      	63.52177       	62.98286       	63.267982      	64.71853       	63.946682      	64.86437       	63.204403      	63.53205       	63.53357       	64.05861       	62.35214       	64.287544      	63.106014      	63.510384      	63.59199       	64.28564       	62.857944      	63.463135      	63.767204      	62.76083       	63.817528      	63.849594      	63.682755      	62.852066      	63.465313      	64.01169       	62.623573      	63.01996       	63.478237      	63.54883       	59.908154      	58.173134      	57.453518      	56.867664      	56.55124       	56.170418      	56.749863      	57.479797      	57.02511       	56.84016       	56.790844      	57.403763      	58.034214      	56.90584       	56.497833      	56.73591       	56.791805      	58.545673      	56.18946       	56.932278      	56.95562       	57.59413       	56.508144      	57.035595      	57.846096      	56.580788      	57.63619       	57.07865       	57.348362      	57.5712        	56.636658      	56.828075      	57.05759       	56.99809       	56.57613       	57.318375      	56.19676       	56.345562      	56.948544      	58.481884      	64.47306       	63.492447      	63.008472      	64.10976       	63.031857      	63.63963       	63.7621        	62.914337      	63.697548      	63.848423      	63.15307       	63.740505      	62.854115      	63.39659       	63.2896        	63.462376      	63.172882      	64.07723       	63.08398       	
62.622562      	62.895153      	63.23356       	63.342617      	63.114273      	63.402294      	63.686947      	62.819534      	63.27049       	63.409176      	63.08825       	63.000767      	62.781395      	63.218197      	63.14174       	64.12141       	63.54326       	63.58912       	63.221287      	63.113716      	63.781403      	63.369354      	62.92322       	63.72515       	63.335926      	63.401604      	63.327312      	62.824944      	63.16788       	63.53102       	62.921852      	63.272045      	62.99961       	64.074066      	64.195335      	62.744076      	62.888172      	63.048283      	62.49156       	62.74052       	63.47302       	61.6994        	58.26418       	57.682217      	56.965828      	56.347218      	56.39481       	57.037205      	56.375084      	56.669476      	57.47554       	56.330013      	57.07837       	56.560455      	56.8564        	57.06591       	56.766853      	56.156197      	56.108444      	57.199196      	58.576523      	56.293552      	56.82237       	56.71968       	57.17981       	56.666508      	57.053074      	56.948162      	56.733593      	56.765884      	56.83422       	57.443653      	55.988934      	56.917046      	57.90772       	55.57923       	56.321484      	55.97684       	55.676         	56.152634      	58.96225       	62.15188       	64.79096       	61.786243      	62.7493        	64.76163       	62.253704      	63.02711       	63.045696      	63.907936      	62.69397       	64.51464       	62.323803      	64.04346       	62.80071       	63.25894       	63.082325      	62.79009       	62.82201       	63.061768      	
62.434048      	62.503967      	63.697598      	63.47518       	62.573997      	63.20497       	63.123566      	62.778694      	63.257954      	63.162125      	63.061333      	62.76599       	63.006493      	62.65243       	63.16831       	62.770874      	63.233593      	62.81328       	63.38996       	62.607475      	63.25133       	62.918034      	62.86608       	63.37403       	63.095695      	63.293793      	63.232727      	62.936283      	62.896324      	62.895332      	62.92233       	62.87578       	63.756268      	64.55815       	62.854534      	63.76324       	63.89144       	62.88737       	63.777744      	62.97888       	63.571957      	63.22512       	59.416874      	58.052578      	57.155777      	56.870007      	56.80503       	57.1818        	58.157913      	57.286694      	57.07458       	57.441383      	56.75364       	56.869423      	57.38099       	56.56371       	56.8227        	58.036865      	57.293385      	56.458176      	56.914764      	57.669487      	57.722412      	57.02211       	57.03894       	57.134716      	56.898857      	56.449615      	56.49388       	57.663483      	57.59054       	57.8643        	57.12736       	57.005993      	57.171135      	57.554867      	56.87802       	56.55335       	56.459114      	56.777607      	57.599052      	61.016315      	63.759212      	65.49317       	63.58653       	63.39131       	63.714466      	63.310413      	63.664803      	63.74725       	63.023712      	64.01529       	63.187737      	63.146645      	63.228252      	63.563927      	63.681602      	63.512947      	63.612286      	63.58945       	
62.769253      	62.904022      	62.868347      	62.951324      	62.840405      	62.859188      	63.103256      	62.6312        	62.842487      	63.11499       	62.62596       	62.894756      	62.90436       	63.29683       	63.08063       	63.13956       	63.504066      	63.813107      	63.021935      	63.83687       	63.769627      	63.395344      	63.383934      	63.683315      	63.347218      	63.41997       	64.05357       	63.22833       	62.959248      	63.519295      	63.47783       	63.799515      	64.04789       	63.37376       	63.889412      	63.36786       	63.297146      	63.26216       	63.3428        	63.307495      	63.340443      	63.15178       	59.728886      	58.550007      	57.633698      	57.143646      	56.77036       	57.68974       	56.92299       	57.26607       	56.93098       	57.01538       	56.927437      	56.823338      	56.680912      	57.16728       	56.786198      	56.774277      	57.522694      	57.00044       	57.329536      	56.705017      	57.407166      	57.129364      	56.790234      	56.64992       	57.003757      	56.808784      	57.04231       	56.53821       	59.029507      	56.68772       	56.734188      	57.4078        	58.01422       	56.847343      	56.760727      	56.595055      	56.528797      	56.287285      	57.313457      	59.56128       	63.671776      	64.97058       	63.08822       	63.790825      	65.43992       	62.499653      	64.08221       	63.683605      	64.23118       	62.644264      	63.171005      	63.589443      	63.61583       	63.317028      	63.31012       	62.990723      	63.52771       	63.539467      	
