# www.neaspec.com
# Scan:	 	AFM
# Project:	 	20251007_PS
# Description:	 	
# Date:	 	10/07/2025 13:24:33
# Scanner Center Position (X, Y):	[µm]	49.99	50.01	 
# Rotation:	[°]	0	 	 
# Scan Area (X, Y, Z):	[µm]	5.000	5.000	0.000
# Pixel Area (X, Y, Z):	[px]	100	100	1
# Averaging:	 	1	 	 
# Integration time:	[ms]	5	 	 
# Laser Source:	 	4.5-15 µm nano-FTIR laser
# Detector:	 	R
# Target Wavelength:	[µm]	7.502	 	 
# Demodulation Mode:	 	Fourier
# Tip Frequency:	[Hz]	241,340.500	 	 
# Tip Amplitude:	[mV]	45.700	 	 
# Tapping Amplitude:	[nm]	76.314	 	 
# Modulation Frequency:	[Hz]	0.000	 	 
# Modulation Amplitude:	[mV]	0.000	 	 
# Modulation Offset:	[mV]	0.000	 	 
# Setpoint:	[%]	79.75	 	 
# Regulator (P, I, D):	 	4.206850	8.625812	1.000000
# Tip Potential:	[mV]	0.000	 	 
# M1A Scaling:	[nm/V]	0.426	 	 
# M1A Cantilever Factor:	 	1,000	 	 
# Q-Factor:	 	487.4	 	 
# Version:	 	2.1.11536.0
1101.4618      	1101.5195      	1101.5145      	1101.4954      	1101.494       	1101.4768      	1101.4767      	1101.4601      	1101.4491      	1101.5653      	1101.6293      	1101.5132      	1101.3479      	1101.3792      	1101.3562      	1101.3347      	1101.383       	1101.3356      	1101.3684      	1101.4053      	1101.3583      	1101.3738      	1101.3805      	1101.3507      	1101.3632      	1101.385       	1101.3806      	1101.39        	1101.4218      	1101.4188      	1101.4318      	1101.4142      	1101.4025      	1101.3771      	1101.3861      	1101.4117      	1101.4694      	1101.4075      	1101.4119      	1101.3889      	1101.3925      	1101.3851      	1101.3599      	1101.1141      	1101.568       	1101.4         	1101.3253      	1101.4028      	1101.324       	1101.411       	1101.3501      	1101.3347      	1101.3337      	1101.3687      	1101.3569      	1101.11        	1101.0155      	1101.0056      	1101.0674      	1101.4283      	1101.3055      	1101.3295      	1101.3259      	1101.2911      	1101.2808      	1101.2836      	1101.2667      	1101.2706      	1101.2915      	1101.2769      	1101.261       	1101.2902      	1101.258       	1101.293       	1101.301       	1101.2626      	1101.2893      	1101.287       	1101.2793      	1101.3093      	1101.2882      	1101.2883      	1101.2583      	1101.3356      	1101.3108      	1101.3088      	1101.3325      	1101.3474      	1101.4253      	1101.3833      	1101.3795      	1101.3718      	1101.4363      	1101.4807      	1101.421       	1101.4847      	1101.5042      	1101.5892      	1101.4985      	1101.531       	
1101.7439      	1101.7483      	1101.7136      	1101.6809      	1101.7173      	1101.6929      	1101.7072      	1101.6791      	1101.75        	1101.8066      	1101.8745      	1101.751       	1101.6279      	1101.6545      	1101.6284      	1101.6271      	1101.6461      	1101.5955      	1101.6243      	1101.6042      	1101.6287      	1101.6376      	1101.6073      	1101.5571      	1101.5897      	1101.5457      	1101.6073      	1101.592       	1101.551       	1101.6296      	1101.6364      	1101.6252      	1101.5878      	1101.6771      	1101.6069      	1101.6497      	1101.6249      	1101.6526      	1101.6407      	1101.6671      	1101.668       	1101.6028      	1101.6217      	1101.43        	1101.6921      	1101.66        	1101.5409      	1101.6647      	1101.6594      	1101.5519      	1101.5144      	1101.7518      	1101.5139      	1101.6506      	1101.5122      	1101.597       	1101.4161      	1101.1497      	1101.1428      	1101.6188      	1101.5044      	1101.5238      	1101.5471      	1101.5519      	1101.5273      	1101.55        	1101.5099      	1101.5184      	1101.4935      	1101.5385      	1101.5072      	1101.4768      	1101.4663      	1101.5155      	1101.4662      	1101.4498      	1101.506       	1101.4275      	1101.466       	1101.4971      	1101.4827      	1101.5018      	1101.4471      	1101.5182      	1101.5461      	1101.521       	1101.5133      	1101.5673      	1101.5278      	1101.5762      	1101.5725      	1101.5944      	1101.6193      	1101.5817      	1101.6493      	1101.6466      	1101.63        	1101.6914      	1101.6951      	1101.6744      	
1101.9825      	1102.005       	1102.0493      	1101.9846      	1101.9949      	1101.9926      	1102.0044      	1101.9714      	1101.999       	1102.071       	1102.2372      	1102.0396      	1101.9746      	1101.9426      	1101.9292      	1101.9572      	1101.9315      	1101.9159      	1101.9152      	1101.9089      	1101.8728      	1101.9071      	1101.887       	1101.9065      	1101.9219      	1101.9132      	1101.951       	1101.9486      	1101.9438      	1101.9543      	1101.9288      	1101.9791      	1101.9904      	1101.9556      	1101.9775      	1101.94        	1102.0431      	1102.0001      	1101.9542      	1101.9803      	1101.9839      	1101.9883      	1102.0038      	1101.9092      	1101.9119      	1101.9177      	1101.9692      	1101.9122      	1102.0063      	1102.0122      	1101.8712      	1101.869       	1101.9746      	1102.046       	1101.8134      	1101.8807      	1101.9099      	1101.6804      	1101.6047      	1102.0027      	1101.9316      	1101.9196      	1101.9358      	1101.94        	1101.9332      	1101.9542      	1101.9016      	1101.9296      	1101.8795      	1101.9067      	1101.8833      	1101.929       	1101.9159      	1101.9143      	1101.9532      	1101.9347      	1101.8977      	1101.9094      	1101.9019      	1101.9137      	1101.9015      	1101.9283      	1101.8767      	1101.9487      	1101.925       	1101.9442      	1101.9547      	1101.9857      	1101.9917      	1101.9733      	1101.9668      	1102.0101      	1102.0153      	1101.9974      	1102.0139      	1102.0437      	1102.0427      	1102.063       	1102.0676      	1102.0549      	
1102.0651      	1102.0729      	1102.1151      	1102.1119      	1102.0952      	1102.0896      	1102.0502      	1102.0714      	1102.0236      	1101.978       	1102.4331      	1101.9866      	1102.0583      	1102.0251      	1102.0112      	1101.9626      	1101.9596      	1101.9436      	1101.9625      	1101.9828      	1101.9612      	1101.9656      	1101.9592      	1101.9939      	1101.9618      	1101.9733      	1102.0112      	1102.0072      	1101.9833      	1101.9695      	1101.9951      	1102.0183      	1102.0197      	1102.0416      	1102.0504      	1102.006       	1102.0096      	1102.0068      	1102.0334      	1102.0266      	1102.048       	1101.9877      	1102.021       	1102.0051      	1101.8562      	1102.0433      	1101.9401      	1102.0481      	1101.8511      	1102.0934      	1102.0073      	1101.8578      	1101.8383      	1102.0376      	1101.8927      	1101.7609      	1101.9812      	1101.7156      	1101.8942      	1101.9851      	1101.9355      	1101.9679      	1101.9397      	1101.955       	1101.9089      	1101.9443      	1101.9377      	1101.9296      	1101.9386      	1101.9095      	1101.9125      	1101.9213      	1101.8672      	1101.9255      	1101.9442      	1101.929       	1101.8685      	1101.9049      	1101.9243      	1101.9005      	1101.909       	1101.9421      	1101.9232      	1101.9789      	1101.9194      	1102.02        	1101.9427      	1101.9281      	1101.9812      	1102.0109      	1102.0283      	1102.078       	1102.063       	1102.0704      	1102.0587      	1102.084       	1102.0845      	1102.0903      	1102.1392      	1102.1486      	
1102.0552      	1102.022       	1102.0006      	1102.0212      	1102.0555      	1101.991       	1102.0027      	1102.0685      	1102.0221      	1101.9703      	1102.2097      	1102.1368      	1102.0042      	1101.9421      	1101.9779      	1101.9617      	1101.9641      	1101.9187      	1101.9363      	1101.9174      	1101.9462      	1101.9835      	1101.961       	1101.9283      	1101.9937      	1101.9791      	1101.991       	1101.9784      	1102.0048      	1102.0073      	1102.0092      	1101.9813      	1102.0164      	1101.9867      	1102.0314      	1101.9905      	1102.0078      	1101.997       	1102.0228      	1102.0646      	1101.9922      	1101.9763      	1101.8508      	1101.7194      	1101.5825      	1102.0255      	1101.8628      	1101.9708      	1102.0319      	1102.0232      	1101.9363      	1101.9822      	1101.844       	1102.1718      	1101.8801      	1101.7567      	1102.0809      	1102.004       	1101.9938      	1101.9719      	1101.9764      	1102.0104      	1101.9442      	1101.9148      	1101.953       	1101.9669      	1101.9685      	1101.9366      	1101.9589      	1101.9899      	1101.9388      	1101.9296      	1101.9741      	1101.9774      	1101.941       	1101.921       	1101.9219      	1101.9208      	1101.9172      	1101.9285      	1102.0135      	1101.9808      	1101.9706      	1101.9165      	1101.9462      	1101.9484      	1102.004       	1101.9833      	1101.98        	1101.9816      	1101.9974      	1102.0425      	1102.0271      	1102.0217      	1102.0574      	1102.0792      	1102.0525      	1102.0857      	1102.1024      	1102.1093      	
1102.1779      	1102.1625      	1102.1803      	1102.1357      	1102.1267      	1102.1978      	1102.0903      	1102.1143      	1102.0497      	1102.0841      	1102.1428      	1102.241       	1102.0947      	1101.9978      	1101.9805      	1102.0364      	1101.9878      	1102.0154      	1102.0015      	1102.0161      	1101.9364      	1101.995       	1101.9751      	1102.0265      	1102.0145      	1101.9747      	1102.0164      	1102.0206      	1101.9946      	1102.0504      	1102.0443      	1102.0319      	1102.0205      	1102.074       	1102.0779      	1102.0023      	1102.037       	1102.0386      	1101.911       	1101.7306      	1101.7101      	1101.856       	1101.698       	1102.0236      	1101.8676      	1101.9553      	1102.0027      	1101.7782      	1101.9249      	1102.0022      	1101.8579      	1102.006       	1101.8428      	1101.9829      	1101.9637      	1101.9305      	1101.9374      	1101.9705      	1101.9601      	1101.9103      	1101.9436      	1101.9342      	1101.9423      	1101.9252      	1101.9425      	1101.9751      	1101.9535      	1101.9481      	1101.9376      	1101.907       	1101.9562      	1101.9595      	1101.9532      	1101.946       	1101.9114      	1101.9543      	1101.9498      	1101.9606      	1101.9872      	1101.9377      	1101.9618      	1101.9995      	1102.0134      	1102.0226      	1101.9937      	1102.0643      	1102.0574      	1102.0162      	1102.075       	1102.0952      	1102.0991      	1102.0901      	1102.1316      	1102.1766      	1102.1329      	1102.1682      	1102.1467      	1102.1356      	1102.1487      	1102.1515      	
1102.0165      	1102.0413      	1102.0627      	1102.052       	1102.0468      	1102.0681      	1102.0773      	1101.9882      	1102.0011      	1101.9675      	1101.987       	1102.3326      	1102.0812      	1101.9033      	1101.9851      	1101.9458      	1101.9663      	1101.9546      	1101.9163      	1101.9766      	1101.9574      	1101.9592      	1102.0253      	1101.9816      	1101.9927      	1102.0255      	1101.9753      	1102.0438      	1102.0066      	1101.997       	1102.0536      	1102.0597      	1102.0085      	1101.9492      	1101.6938      	1101.7102      	1101.6285      	1101.802       	1102.0049      	1101.9448      	1101.9403      	1101.9713      	1101.9491      	1102.0165      	1101.8442      	1101.8479      	1102.0339      	1101.8292      	1101.9036      	1102.0155      	1102.0344      	1101.999       	1101.9491      	1101.9882      	1101.9697      	1101.9438      	1101.9526      	1101.9456      	1101.9567      	1101.983       	1101.9739      	1101.9263      	1101.9943      	1101.9635      	1102.0126      	1102.0693      	1102.0374      	1101.948       	1101.9707      	1101.9789      	1101.9939      	1101.9761      	1101.9745      	1101.961       	1101.9875      	1102.0096      	1102.0286      	1102.0181      	1102.0044      	1102.0071      	1102.063       	1102.0378      	1102.0529      	1102.036       	1102.0205      	1102.0719      	1102.0487      	1102.1179      	1102.0828      	1102.1003      	1102.1061      	1102.1483      	1102.1343      	1102.1635      	1102.1816      	1102.161       	1102.1548      	1102.1729      	1102.1665      	1102.1919      	
1102.1515      	1102.1521      	1102.099       	1102.0919      	1102.1262      	1102.1149      	1102.1274      	1102.0897      	1102.085       	1102.0483      	1102.0676      	1102.2968      	1102.1602      	1102.1077      	1102.0282      	1102.0289      	1102.0594      	1102.0253      	1102.0026      	1102.077       	1102.0852      	1102.0603      	1102.0424      	1102.076       	1102.1012      	1102.1218      	1102.1353      	1102.118       	1102.0925      	1102.063       	1102.0635      	1101.8229      	1102.103       	1102.0562      	1102.0222      	1102.0004      	1102.2351      	1102.1191      	1101.9948      	1101.9326      	1102.1354      	1101.9543      	1102.0773      	1102.0931      	1102.0671      	1102.0702      	1102.0745      	1102.0594      	1102.0527      	1102.0642      	1102.0878      	1102.0688      	1102.0554      	1102.0919      	1102.1182      	1102.1229      	1102.0857      	1102.123       	1102.1202      	1102.1422      	1102.1327      	1102.1451      	1102.1229      	1102.1135      	1102.127       	1102.1257      	1102.0901      	1102.1158      	1102.1017      	1102.0756      	1102.1444      	1102.1353      	1102.1205      	1102.1355      	1102.1794      	1102.1827      	1102.1772      	1102.1415      	1102.1682      	1102.1755      	1102.2375      	1102.1125      	1102.2175      	1102.1705      	1102.2273      	1102.2476      	1102.2643      	1102.2445      	1102.2307      	1102.3191      	1102.2891      	1102.2727      	1102.2953      	1102.3589      	1102.3208      	1102.2893      	1102.3224      	1102.3641      	1102.3457      	1102.3478      	
1102.274       	1102.2461      	1102.2882      	1102.2969      	1102.2273      	1102.2657      	1102.2391      	1102.2047      	1102.1946      	1102.1833      	1102.2064      	1102.4459      	1102.3865      	1102.2073      	1102.1194      	1102.1382      	1102.1298      	1102.1731      	1102.1582      	1102.1698      	1102.2263      	1102.1678      	1102.1443      	1102.2006      	1102.217       	1102.1167      	1101.9087      	1102.0128      	1102.2059      	1102.2351      	1102.2413      	1101.9999      	1102.2347      	1102.243       	1102.2312      	1102.0043      	1102.3951      	1102.0822      	1102.1052      	1102.2378      	1102.215       	1102.2463      	1102.1599      	1102.2277      	1102.2306      	1102.1454      	1102.179       	1102.1962      	1102.2415      	1102.2424      	1102.1993      	1102.2218      	1102.2169      	1102.2292      	1102.2288      	1102.285       	1102.2324      	1102.2704      	1102.2007      	1102.2112      	1102.2319      	1102.2307      	1102.2014      	1102.2708      	1102.2302      	1102.2328      	1102.2175      	1102.1946      	1102.2239      	1102.211       	1102.2217      	1102.2284      	1102.275       	1102.2751      	1102.2936      	1102.3074      	1102.2847      	1102.2687      	1102.3191      	1102.329       	1102.3672      	1102.3743      	1102.3457      	1102.3745      	1102.3655      	1102.4315      	1102.4984      	1102.4119      	1102.4573      	1102.4724      	1102.5154      	1102.5261      	1102.5112      	1102.5366      	1102.512       	1102.5382      	1102.552       	1102.5308      	1102.5415      	1102.4956      	
1102.4869      	1102.478       	1102.48        	1102.461       	1102.4716      	1102.4692      	1102.4297      	1102.4365      	1102.4106      	1102.4272      	1102.3899      	1102.5323      	1102.5643      	1102.3928      	1102.3834      	1102.3729      	1102.4088      	1102.3794      	1102.3746      	1102.3959      	1102.2047      	1102.1466      	1101.9922      	1102.1174      	1102.58        	1102.4386      	1102.3584      	1102.2898      	1102.3464      	1102.3342      	1102.2391      	1102.4324      	1102.2935      	1102.4646      	1102.403       	1102.2407      	1102.4058      	1102.5441      	1102.4297      	1102.453       	1102.4807      	1102.4022      	1102.414       	1102.4287      	1102.4651      	1102.4364      	1102.4255      	1102.4368      	1102.4308      	1102.4019      	1102.41        	1102.4304      	1102.3986      	1102.4509      	1102.3788      	1102.4299      	1102.4314      	1102.4113      	1102.421       	1102.4366      	1102.4465      	1102.3954      	1102.4784      	1102.4413      	1102.4403      	1102.452       	1102.4502      	1102.471       	1102.4565      	1102.4777      	1102.4263      	1102.4491      	1102.4634      	1102.4509      	1102.4657      	1102.4968      	1102.485       	1102.4908      	1102.4739      	1102.5305      	1102.5564      	1102.5509      	1102.5704      	1102.5695      	1102.5818      	1102.5774      	1102.646       	1102.6276      	1102.6157      	1102.6375      	1102.6398      	1102.5731      	1102.6431      	1102.6177      	1102.5858      	1102.6172      	1102.5846      	1102.6158      	1102.6306      	1102.6067      	
1102.515       	1102.5198      	1102.4595      	1102.431       	1102.4294      	1102.4061      	1102.4447      	1102.4253      	1102.399       	1102.3766      	1102.3816      	1102.3843      	1102.3645      	1102.4259      	1102.3823      	1102.365       	1102.3573      	1102.2523      	1102.0641      	1102.0559      	1102.554       	1102.5613      	1102.5067      	1102.3607      	1102.3579      	1102.3917      	1102.3491      	1102.2366      	1102.3557      	1102.3416      	1102.1746      	1102.3192      	1102.4559      	1102.4634      	1102.424       	1102.4392      	1102.4009      	1102.4692      	1102.3054      	1102.287       	1102.3805      	1102.4081      	1102.3611      	1102.3999      	1102.4155      	1102.3314      	1102.3157      	1102.3561      	1102.352       	1102.3495      	1102.3323      	1102.356       	1102.3462      	1102.3701      	1102.3397      	1102.3622      	1102.3661      	1102.3009      	1102.3177      	1102.3655      	1102.3768      	1102.3994      	1102.3788      	1102.381       	1102.3971      	1102.387       	1102.4015      	1102.3795      	1102.3589      	1102.3986      	1102.4001      	1102.3877      	1102.4083      	1102.4071      	1102.4374      	1102.4221      	1102.4279      	1102.461       	1102.464       	1102.444       	1102.4911      	1102.4702      	1102.467       	1102.4775      	1102.5061      	1102.5159      	1102.5538      	1102.5098      	1102.5663      	1102.5854      	1102.5039      	1102.5558      	1102.5576      	1102.5839      	1102.5609      	1102.5736      	1102.5724      	1102.5775      	1102.6112      	1102.5393      	
1102.3154      	1102.2404      	1102.2198      	1102.2762      	1102.2345      	1102.211       	1102.2427      	1102.2019      	1102.2151      	1102.1788      	1102.1971      	1102.2036      	1102.1853      	1102.1569      	1102.2         	1102.192       	1102.1581      	1102.1686      	1102.1909      	1102.1886      	1102.1722      	1102.2294      	1102.3446      	1102.2323      	1102.1736      	1102.1594      	1102.1184      	1102.0962      	1102.3022      	1102.2429      	1102.2578      	1102.2269      	1102.2235      	1102.2283      	1102.2485      	1102.2042      	1102.2194      	1102.2526      	1102.2112      	1102.2314      	1102.2128      	1102.2048      	1102.2427      	1102.2092      	1102.2113      	1102.2251      	1102.2341      	1102.2501      	1102.2183      	1102.2361      	1102.2112      	1102.2404      	1102.2523      	1102.2703      	1102.2557      	1102.2668      	1102.2292      	1102.2673      	1102.26        	1102.2896      	1102.295       	1102.297       	1102.299       	1102.2975      	1102.3197      	1102.304       	1102.2933      	1102.3118      	1102.3257      	1102.3         	1102.3333      	1102.334       	1102.3093      	1102.3401      	1102.3429      	1102.3643      	1102.3352      	1102.3462      	1102.3743      	1102.3973      	1102.4158      	1102.4242      	1102.3954      	1102.4476      	1102.4478      	1102.4805      	1102.4983      	1102.4832      	1102.5165      	1102.4734      	1102.5176      	1102.4933      	1102.5271      	1102.509       	1102.5139      	1102.4893      	1102.5138      	1102.4989      	1102.5614      	1102.5334      	
1102.3778      	1102.3632      	1102.3577      	1102.3727      	1102.3624      	1102.3247      	1102.28        	1102.3586      	1102.3116      	1102.2874      	1102.3898      	1102.2529      	1102.3038      	1102.2748      	1102.3104      	1102.2968      	1102.2632      	1102.2623      	1102.2737      	1102.341       	1102.2616      	1102.3479      	1102.302       	1102.3328      	1102.3167      	1102.3953      	1102.3342      	1102.3379      	1102.3485      	1102.2853      	1102.3206      	1102.3127      	1102.3785      	1102.2993      	1102.3512      	1102.342       	1102.3018      	1102.305       	1102.3295      	1102.325       	1102.3181      	1102.3167      	1102.297       	1102.2803      	1102.2905      	1102.3337      	1102.362       	1102.319       	1102.3049      	1102.3273      	1102.3591      	1102.3077      	1102.381       	1102.3767      	1102.3585      	1102.3931      	1102.4025      	1102.3789      	1102.4071      	1102.3804      	1102.4218      	1102.3795      	1102.3472      	1102.4003      	1102.414       	1102.4159      	1102.4015      	1102.4252      	1102.3745      	1102.3892      	1102.4119      	1102.4064      	1102.4497      	1102.3973      	1102.4485      	1102.465       	1102.4478      	1102.4491      	1102.4517      	1102.4509      	1102.4689      	1102.5095      	1102.5143      	1102.5481      	1102.5394      	1102.5642      	1102.5533      	1102.6034      	1102.5835      	1102.5822      	1102.6047      	1102.5981      	1102.5593      	1102.574       	1102.5724      	1102.5623      	1102.5957      	1102.4817      	1102.509       	1102.5476      	
1102.4114      	1102.5364      	1102.5492      	1102.4888      	1102.4462      	1102.5126      	1102.4154      	1102.4526      	1102.3525      	1102.4667      	1102.3822      	1102.4142      	1102.4146      	1102.3839      	1102.4203      	1102.4318      	1102.3167      	1102.3615      	1102.3859      	1102.3812      	1102.4004      	1102.4086      	1102.3792      	1102.4159      	1102.444       	1102.3345      	1102.4805      	1102.4979      	1102.3702      	1102.4458      	1102.4039      	1102.4252      	1102.3875      	1102.4568      	1102.4225      	1102.4308      	1102.4227      	1102.4529      	1102.405       	1102.4218      	1102.4733      	1102.4221      	1102.45        	1102.4315      	1102.4176      	1102.4532      	1102.3904      	1102.4911      	1102.4818      	1102.4692      	1102.4895      	1102.5161      	1102.5088      	1102.5276      	1102.5378      	1102.5146      	1102.5419      	1102.5079      	1102.4756      	1102.5359      	1102.5292      	1102.5592      	1102.511       	1102.5575      	1102.5085      	1102.5728      	1102.5468      	1102.5638      	1102.5726      	1102.6072      	1102.6038      	1102.5526      	1102.6315      	1102.6561      	1102.6024      	1102.6141      	1102.6412      	1102.6716      	1102.6426      	1102.7169      	1102.6648      	1102.6714      	1102.6819      	1102.6727      	1102.7299      	1102.6384      	1102.7112      	1102.7382      	1102.7396      	1102.727       	1102.6736      	1102.6892      	1102.7156      	1102.7141      	1102.7004      	1102.6587      	1102.7073      	1102.6915      	1102.6327      	1102.6423      	
1102.5327      	1102.5095      	1102.5276      	1102.5253      	1102.492       	1102.4358      	1102.4747      	1102.4983      	1102.4803      	1102.4514      	1102.4905      	1102.445       	1102.4442      	1102.4509      	1102.4427      	1102.4963      	1102.4929      	1102.4991      	1102.4598      	1102.4922      	1102.4773      	1102.5593      	1102.5223      	1102.4844      	1102.5564      	1102.5709      	1102.5621      	1102.5146      	1102.5142      	1102.448       	1102.49        	1102.4495      	1102.5215      	1102.4827      	1102.5107      	1102.5491      	1102.552       	1102.5054      	1102.4832      	1102.5187      	1102.4735      	1102.4388      	1102.5917      	1102.524       	1102.5432      	1102.4979      	1102.5295      	1102.538       	1102.5427      	1102.5369      	1102.5311      	1102.6102      	1102.5402      	1102.6061      	1102.5681      	1102.6693      	1102.5267      	1102.5782      	1102.61        	1102.5868      	1102.557       	1102.7136      	1102.6135      	1102.6558      	1102.5806      	1102.6473      	1102.6404      	1102.6869      	1102.662       	1102.7036      	1102.6517      	1102.7362      	1102.6505      	1102.7208      	1102.7476      	1102.7229      	1102.7228      	1102.7228      	1102.6948      	1102.7786      	1102.8505      	1102.766       	1102.8262      	1102.7999      	1102.814       	1102.7498      	1102.8325      	1102.8107      	1102.787       	1102.8732      	1102.8882      	1102.83        	1102.8345      	1102.7902      	1102.7681      	1102.8279      	1102.829       	1102.7463      	1102.7899      	1102.7845      	
1102.4901      	1102.4507      	1102.4304      	1102.456       	1102.4454      	1102.4595      	1102.4291      	1102.4478      	1102.425       	1102.3955      	1102.5093      	1102.3986      	1102.4325      	1102.4618      	1102.408       	1102.4552      	1102.4004      	1102.4587      	1102.41        	1102.4318      	1102.4624      	1102.4681      	1102.4309      	1102.5054      	1102.4749      	1102.476       	1102.5088      	1102.4641      	1102.465       	1102.4572      	1102.4823      	1102.4583      	1102.5061      	1102.4819      	1102.4692      	1102.4272      	1102.47        	1102.451       	1102.4542      	1102.4495      	1102.4497      	1102.4426      	1102.4559      	1102.4468      	1102.4542      	1102.4917      	1102.4728      	1102.4729      	1102.536       	1102.5215      	1102.5493      	1102.559       	1102.5645      	1102.5325      	1102.5913      	1102.6311      	1102.5746      	1102.6301      	1102.5812      	1102.6074      	1102.6107      	1102.6072      	1102.6052      	1102.5967      	1102.5834      	1102.614       	1102.563       	1102.6029      	1102.6023      	1102.605       	1102.5951      	1102.6497      	1102.5974      	1102.6632      	1102.6792      	1102.6589      	1102.6619      	1102.637       	1102.6814      	1102.685       	1102.6724      	1102.7128      	1102.712       	1102.7358      	1102.703       	1102.7255      	1102.7323      	1102.792       	1102.7686      	1102.7104      	1102.7548      	1102.7706      	1102.7882      	1102.7522      	1102.728       	1102.7108      	1102.7317      	1102.7034      	1102.656       	1102.6621      	
1102.4309      	1102.4197      	1102.4562      	1102.4109      	1102.4094      	1102.3861      	1102.3705      	1102.3859      	1102.4177      	1102.3616      	1102.391       	1102.3977      	1102.4213      	1102.4247      	1102.4143      	1102.3903      	1102.3876      	1102.4089      	1102.4253      	1102.4363      	1102.4183      	1102.4845      	1102.4225      	1102.4944      	1102.48        	1102.4135      	1102.4407      	1102.4263      	1102.4473      	1102.4564      	1102.4224      	1102.4429      	1102.4966      	1102.4729      	1102.4366      	1102.4569      	1102.4559      	1102.4159      	1102.4532      	1102.4529      	1102.4285      	1102.4656      	1102.4951      	1102.4208      	1102.49        	1102.4481      	1102.4692      	1102.4458      	1102.4786      	1102.4875      	1102.5164      	1102.5415      	1102.479       	1102.5032      	1102.5304      	1102.5396      	1102.5219      	1102.5066      	1102.5577      	1102.6046      	1102.487       	1102.5242      	1102.5739      	1102.5364      	1102.5636      	1102.578       	1102.5411      	1102.5623      	1102.5565      	1102.5939      	1102.5569      	1102.6108      	1102.6141      	1102.6056      	1102.61        	1102.5808      	1102.6456      	1102.5963      	1102.6542      	1102.6099      	1102.6165      	1102.6836      	1102.617       	1102.6284      	1102.6923      	1102.5929      	1102.66        	1102.6854      	1102.6979      	1102.6919      	1102.6593      	1102.6721      	1102.656       	1102.6991      	1102.6694      	1102.5764      	1102.6587      	1102.615       	1102.615       	1102.5542      	
1102.4746      	1102.5011      	1102.4696      	1102.4656      	1102.4648      	1102.44        	1102.4415      	1102.4518      	1102.4706      	1102.5073      	1102.4789      	1102.4247      	1102.4753      	1102.4933      	1102.5353      	1102.4702      	1102.4774      	1102.5444      	1102.5115      	1102.448       	1102.5193      	1102.5782      	1102.4792      	1102.4973      	1102.5652      	1102.5144      	1102.4989      	1102.5896      	1102.5234      	1102.4866      	1102.5072      	1102.5325      	1102.5331      	1102.589       	1102.5405      	1102.5579      	1102.5586      	1102.5486      	1102.5529      	1102.548       	1102.5061      	1102.551       	1102.5309      	1102.545       	1102.591       	1102.534       	1102.5693      	1102.5688      	1102.5686      	1102.6493      	1102.587       	1102.6259      	1102.6112      	1102.6523      	1102.6328      	1102.7107      	1102.648       	1102.6934      	1102.6846      	1102.674       	1102.6799      	1102.6741      	1102.7372      	1102.6562      	1102.7148      	1102.7257      	1102.7782      	1102.7487      	1102.7579      	1102.6876      	1102.7124      	1102.6575      	1102.6941      	1102.7284      	1102.7198      	1102.743       	1102.7378      	1102.7089      	1102.7122      	1102.7756      	1102.7853      	1102.7358      	1102.7924      	1102.798       	1102.7854      	1102.6959      	1102.8147      	1102.7946      	1102.7605      	1102.7843      	1102.7716      	1102.7284      	1102.768       	1102.7714      	1102.7684      	1102.6637      	1102.7034      	1102.6788      	1102.6272      	1102.7095      	
1102.6583      	1102.6545      	1102.617       	1102.6007      	1102.6458      	1102.6267      	1102.6105      	1102.5881      	1102.6355      	1102.6075      	1102.6033      	1102.63        	1102.6263      	1102.6747      	1102.6584      	1102.6573      	1102.5912      	1102.7196      	1102.6696      	1102.6748      	1102.6703      	1102.6848      	1102.718       	1102.7063      	1102.6808      	1102.7482      	1102.729       	1102.697       	1102.7136      	1102.7242      	1102.7115      	1102.6838      	1102.6942      	1102.726       	1102.6779      	1102.7034      	1102.7078      	1102.6802      	1102.7029      	1102.7225      	1102.7673      	1102.7007      	1102.7711      	1102.773       	1102.7566      	1102.759       	1102.8376      	1102.8524      	1102.8035      	1102.7966      	1102.8463      	1102.8341      	1102.827       	1102.8419      	1102.8811      	1102.7816      	1102.9022      	1102.8699      	1102.8965      	1102.8591      	1102.8536      	1102.7905      	1102.9314      	1102.8997      	1102.794       	1102.929       	1102.9589      	1102.9347      	1102.9542      	1102.8567      	1102.927       	1102.9476      	1102.9304      	1103.0009      	1102.947       	1102.9442      	1102.9536      	1103.023       	1102.9764      	1103.0117      	1102.9967      	1102.9958      	1103.0251      	1102.9949      	1103.0598      	1102.9937      	1103.0193      	1103.005       	1103.0305      	1103.0397      	1103.0309      	1102.9988      	1102.9617      	1102.9976      	1103.0056      	1102.994       	1102.9692      	1102.9692      	1102.952       	1102.9718      	
1102.8708      	1102.8499      	1102.8585      	1102.8649      	1102.852       	1102.8596      	1102.8375      	1102.8241      	1102.8383      	1102.8248      	1102.8878      	1102.8562      	1102.883       	1102.8567      	1102.9065      	1102.8868      	1102.9045      	1102.8517      	1102.8761      	1102.897       	1103.0083      	1102.9475      	1102.8807      	1103.0245      	1102.9321      	1102.887       	1102.9749      	1102.8645      	1102.8757      	1102.971       	1102.8966      	1102.9592      	1102.9493      	1102.9534      	1103.0308      	1102.896       	1102.9235      	1102.9272      	1102.9674      	1102.9689      	1102.9585      	1102.981       	1102.9348      	1102.8662      	1102.9822      	1102.9504      	1102.9181      	1102.9587      	1103.0092      	1102.9882      	1103.0381      	1103.0156      	1103.06        	1103.0823      	1103.059       	1103.1038      	1103.1221      	1103.1128      	1103.114       	1103.0886      	1103.0752      	1103.1118      	1103.0822      	1103.0905      	1103.1051      	1103.1151      	1103.128       	1103.0911      	1103.1143      	1103.1199      	1103.1145      	1103.1395      	1103.1261      	1103.135       	1103.1167      	1103.1238      	1103.1691      	1103.132       	1103.1903      	1103.1243      	1103.1505      	1103.1776      	1103.1407      	1103.1499      	1103.1858      	1103.1932      	1103.1158      	1103.1478      	1103.2029      	1103.157       	1103.1309      	1103.1282      	1103.102       	1103.081       	1103.0825      	1103.0546      	1103.1056      	1103.1512      	1103.1156      	1103.0486      	
1102.8661      	1102.8602      	1102.9078      	1102.8793      	1102.8527      	1102.8723      	1102.8363      	1102.8336      	1102.8477      	1102.8406      	1102.8171      	1102.79        	1102.8215      	1102.7932      	1102.8729      	1102.8546      	1102.8323      	1102.8684      	1102.8892      	1102.9073      	1102.9038      	1102.9303      	1102.9023      	1102.9281      	1102.9142      	1102.9583      	1102.9081      	1102.9557      	1102.9138      	1102.9249      	1102.865       	1102.9006      	1102.9105      	1102.8699      	1102.9456      	1102.8917      	1102.8983      	1102.9462      	1102.9282      	1102.9387      	1102.9563      	1102.9843      	1102.9391      	1102.9098      	1102.9915      	1102.9827      	1102.9712      	1102.9738      	1103.0138      	1102.9758      	1103.0267      	1103.0383      	1103.0173      	1103.0427      	1103.0476      	1103.0463      	1103.0354      	1103.0765      	1103.0945      	1103.0237      	1103.0454      	1103.1052      	1103.1163      	1103.0768      	1103.1083      	1103.0626      	1103.0776      	1103.0748      	1103.0814      	1103.0763      	1103.119       	1103.1504      	1103.1619      	1103.07        	1103.1124      	1103.1447      	1103.105       	1103.1123      	1103.129       	1103.1099      	1103.0925      	1103.0853      	1103.169       	1103.115       	1103.0864      	1103.0681      	1103.078       	1103.1096      	1103.0549      	1103.0911      	1103.0865      	1103.2562      	1103.2476      	1103.0969      	1103.0435      	1103.0818      	1103.0353      	1103.0272      	1102.9995      	1102.8884      	
1102.8547      	1102.8544      	1102.8474      	1102.7709      	1102.826       	1102.852       	1102.884       	1102.8364      	1102.8328      	1102.8967      	1102.8907      	1102.8481      	1102.8867      	1102.855       	1102.9601      	1102.9036      	1102.9238      	1102.8776      	1102.9583      	1102.8854      	1102.953       	1102.8898      	1102.9554      	1102.9006      	1102.9734      	1102.9689      	1102.8884      	1102.976       	1102.9463      	1102.9226      	1102.9027      	1102.9573      	1102.9718      	1102.939       	1102.8885      	1102.9305      	1102.9436      	1102.9553      	1102.946       	1102.984       	1102.997       	1102.9011      	1103.0106      	1102.9713      	1103.0057      	1102.9974      	1103.021       	1103.0055      	1102.9462      	1103.0767      	1103.0088      	1103.0038      	1103.0493      	1103.0089      	1103.103       	1103.0734      	1103.1008      	1103.0981      	1103.0868      	1103.0542      	1103.0803      	1103.0953      	1103.058       	1103.1216      	1103.0579      	1103.1204      	1103.0691      	1103.0875      	1103.0293      	1103.1118      	1103.0975      	1103.0317      	1103.1259      	1103.0944      	1103.0884      	1103.0972      	1103.0712      	1103.0692      	1103.0858      	1103.1102      	1103.0525      	1103.1161      	1103.1078      	1103.1096      	1103.1187      	1103.1454      	1103.0613      	1103.0863      	1103.2108      	1103.2649      	1103.1228      	1103.073       	1103.0779      	1103.1168      	1103.0542      	1103.1105      	1102.9556      	1102.9609      	1102.9663      	1102.9236      	
1102.7363      	1102.7374      	1102.7935      	1102.79        	1102.765       	1102.7687      	1102.7142      	1102.789       	1102.7554      	1102.799       	1102.7712      	1102.7584      	1102.7958      	1102.817       	1102.7378      	1102.8433      	1102.8297      	1102.8427      	1102.8292      	1102.8339      	1102.8259      	1102.897       	1102.8385      	1102.8314      	1102.8177      	1102.8619      	1102.8202      	1102.8163      	1102.84        	1102.7993      	1102.8113      	1102.7975      	1102.7756      	1102.7935      	1102.8446      	1102.8379      	1102.8455      	1102.7739      	1102.844       	1102.837       	1102.8981      	1102.8097      	1102.8497      	1102.8524      	1102.8638      	1102.8693      	1102.9241      	1102.8821      	1102.8749      	1102.9432      	1102.9299      	1102.9319      	1102.9359      	1102.9403      	1102.9432      	1102.9591      	1102.957       	1103.0105      	1102.9175      	1102.9447      	1102.9956      	1102.924       	1102.9348      	1102.94        	1102.9667      	1102.9656      	1102.9843      	1102.9124      	1102.9598      	1102.8875      	1103.0243      	1102.9285      	1102.9417      	1102.9132      	1102.967       	1102.8787      	1102.9614      	1102.968       	1102.8403      	1103.0867      	1102.9341      	1103.0027      	1102.8507      	1103.1266      	1102.8845      	1103.0011      	1102.8472      	1103.3824      	1103.1361      	1103.0741      	1103.0396      	1102.9093      	1102.9177      	1102.8434      	1102.8451      	1102.825       	1102.8403      	1102.8035      	1102.7863      	1102.8279      	
1102.6509      	1102.6876      	1102.711       	1102.6726      	1102.6545      	1102.646       	1102.6611      	1102.6713      	1102.6708      	1102.6991      	1102.6458      	1102.726       	1102.7316      	1102.7349      	1102.7252      	1102.7404      	1102.717       	1102.7544      	1102.7404      	1102.7542      	1102.7126      	1102.7603      	1102.7635      	1102.754       	1102.7767      	1102.7794      	1102.7526      	1102.7278      	1102.777       	1102.7319      	1102.6667      	1102.854       	1102.6892      	1102.7979      	1102.7571      	1102.7212      	1102.7098      	1102.717       	1102.7393      	1102.7443      	1102.7451      	1102.7441      	1102.7843      	1102.7583      	1102.7455      	1102.7244      	1102.7971      	1102.8044      	1102.7749      	1102.8358      	1102.7772      	1102.8411      	1102.8169      	1102.853       	1102.8331      	1102.8323      	1102.83        	1102.8541      	1102.8595      	1102.8164      	1102.8584      	1102.8032      	1102.8458      	1102.815       	1102.7861      	1102.8444      	1102.7909      	1102.841       	1102.8772      	1102.8215      	1102.8533      	1102.8951      	1102.8243      	1102.864       	1102.8231      	1102.8661      	1102.9039      	1102.8541      	1102.8871      	1102.8003      	1102.8745      	1102.836       	1102.8202      	1102.8475      	1102.8071      	1102.8552      	1103.1256      	1103.1084      	1102.8727      	1102.8429      	1102.9285      	1102.8296      	1102.8102      	1102.7694      	1102.7313      	1102.7407      	1102.7415      	1102.7322      	1102.6865      	1102.697       	
1102.604       	1102.6459      	1102.5942      	1102.5479      	1102.6086      	1102.5957      	1102.6262      	1102.6199      	1102.6392      	1102.6537      	1102.6548      	1102.6724      	1102.6593      	1102.673       	1102.703       	1102.7506      	1102.7118      	1102.7241      	1102.6876      	1102.7263      	1102.6713      	1102.752       	1102.7172      	1102.6847      	1102.7114      	1102.7401      	1102.7085      	1102.7688      	1102.7577      	1102.6672      	1102.7101      	1102.7059      	1102.7018      	1102.7446      	1102.7668      	1102.795       	1102.7878      	1102.7957      	1102.7788      	1102.8013      	1102.783       	1102.8547      	1102.8352      	1102.7996      	1102.8112      	1102.8667      	1102.838       	1102.8983      	1102.8175      	1102.8363      	1102.8724      	1102.8868      	1102.863       	1102.9563      	1102.8752      	1102.9235      	1102.9417      	1102.8976      	1102.8794      	1102.8602      	1102.8533      	1102.8591      	1102.8394      	1102.8259      	1102.8605      	1102.7986      	1102.8723      	1102.8494      	1102.817       	1102.8527      	1102.7949      	1102.7883      	1102.786       	1102.8075      	1102.8618      	1102.8446      	1102.8396      	1102.8496      	1102.8279      	1102.8451      	1102.8276      	1102.8644      	1102.8285      	1102.7881      	1102.823       	1102.8433      	1103.0962      	1103.0162      	1102.8394      	1102.8062      	1102.8508      	1102.7794      	1102.7577      	1102.728       	1102.7704      	1102.7416      	1102.7126      	1102.6833      	1102.7701      	1102.6836      	
1102.6492      	1102.6302      	1102.6621      	1102.6649      	1102.6844      	1102.6746      	1102.6819      	1102.7216      	1102.6841      	1102.7029      	1102.7065      	1102.7273      	1102.72        	1102.705       	1102.7329      	1102.7394      	1102.7084      	1102.7727      	1102.7404      	1102.7449      	1102.8107      	1102.7708      	1102.799       	1102.7814      	1102.7495      	1102.6945      	1102.7539      	1102.7144      	1102.7705      	1102.7214      	1102.7456      	1102.6647      	1102.7421      	1102.7361      	1102.7488      	1102.7822      	1102.7642      	1102.7697      	1102.7999      	1102.5792      	1102.7238      	1102.9255      	1102.7983      	1102.808       	1102.8374      	1102.8389      	1102.832       	1102.7521      	1102.8722      	1102.8363      	1102.816       	1102.7911      	1102.868       	1102.8934      	1102.8223      	1102.8046      	1102.8575      	1102.862       	1102.8541      	1102.8296      	1102.8684      	1102.8087      	1102.85        	1102.828       	1102.8267      	1102.7102      	1102.8083      	1102.8497      	1102.8342      	1102.776       	1102.8439      	1102.8567      	1102.7284      	1102.8381      	1102.7921      	1102.8417      	1102.816       	1102.8419      	1102.8701      	1102.8165      	1102.8728      	1102.848       	1102.804       	1102.83        	1102.8232      	1102.8208      	1103.012       	1103.0443      	1102.8259      	1102.7498      	1102.7902      	1102.8224      	1102.7355      	1102.6987      	1102.7166      	1102.6714      	1102.695       	1102.6877      	1102.6615      	1102.6655      	
1102.6448      	1102.6091      	1102.6174      	1102.6526      	1102.6482      	1102.6482      	1102.646       	1102.688       	1102.645       	1102.6923      	1102.6812      	1102.6731      	1102.7009      	1102.6965      	1102.697       	1102.6967      	1102.7249      	1102.7546      	1102.7072      	1102.7362      	1102.7428      	1102.7153      	1102.7678      	1102.7296      	1102.7253      	1102.7433      	1102.7299      	1102.746       	1102.7645      	1102.7367      	1102.7166      	1102.6976      	1102.7037      	1102.7402      	1102.7618      	1102.784       	1102.7793      	1102.7488      	1102.8241      	1102.787       	1102.8146      	1102.7771      	1102.8107      	1102.8503      	1102.8059      	1102.851       	1102.8071      	1102.8234      	1102.8865      	1102.8309      	1102.8446      	1102.884       	1102.8986      	1102.8771      	1102.8916      	1102.8331      	1102.898       	1102.8898      	1102.8966      	1102.9028      	1102.8505      	1102.852       	1102.8439      	1102.8638      	1102.8397      	1102.8243      	1102.7922      	1102.8695      	1102.8671      	1102.8605      	1102.8097      	1102.8062      	1102.8748      	1102.8759      	1102.8358      	1102.897       	1102.8527      	1102.8555      	1102.852       	1102.867       	1102.8636      	1102.8263      	1102.7657      	1102.8308      	1102.8595      	1102.702       	1103.0765      	1102.9917      	1102.9396      	1102.7767      	1102.8113      	1102.8346      	1102.8048      	1102.7372      	1102.7473      	1102.7397      	1102.7413      	1102.7421      	1102.6779      	1102.7317      	
1102.7794      	1102.7384      	1102.8097      	1102.7501      	1102.7018      	1102.7559      	1102.8087      	1102.8384      	1102.8124      	1102.8369      	1102.797       	1102.8302      	1102.8762      	1102.8824      	1102.8579      	1102.879       	1102.8455      	1102.9207      	1102.9169      	1102.8575      	1102.8585      	1102.8702      	1102.887       	1102.872       	1102.8647      	1102.9037      	1102.8866      	1102.8987      	1102.9055      	1102.8868      	1102.9172      	1102.9185      	1102.8776      	1102.9158      	1102.8756      	1102.9032      	1102.8684      	1103.0089      	1102.9106      	1102.914       	1102.9752      	1102.8685      	1102.916       	1102.9772      	1103.0162      	1102.9636      	1102.8944      	1103.0009      	1102.9968      	1102.9745      	1102.988       	1103.0386      	1102.9877      	1103.0284      	1102.976       	1103.1232      	1103.0409      	1102.9656      	1103.0321      	1102.9562      	1103.1132      	1102.9481      	1102.8268      	1103.0245      	1103.1528      	1102.7291      	1103.1746      	1102.9753      	1102.955       	1102.9663      	1102.9751      	1102.9247      	1103.0105      	1102.9796      	1102.803       	1103.0214      	1102.8597      	1103.0046      	1102.9446      	1102.9421      	1102.9823      	1102.9401      	1102.921       	1102.9202      	1102.8323      	1102.8826      	1102.9518      	1103.3048      	1103.0773      	1102.9159      	1102.8947      	1102.9623      	1102.8563      	1102.8104      	1102.8774      	1102.7948      	1102.8716      	1102.799       	1102.776       	1102.7389      	
1102.9353      	1102.9163      	1102.9695      	1102.9923      	1102.9766      	1102.9546      	1102.9364      	1102.9761      	1102.965       	1102.9347      	1102.9478      	1103.0385      	1102.9884      	1103.0167      	1102.9885      	1102.9994      	1103.0038      	1103.0132      	1103.0167      	1103.0018      	1102.9938      	1102.9733      	1103.0165      	1103.0331      	1103.0068      	1103.0251      	1103.0792      	1103.0721      	1103.0002      	1103.0004      	1102.9875      	1103.0295      	1103.0276      	1102.9958      	1103.0475      	1102.9839      	1103.0842      	1102.9575      	1103.0808      	1103.0592      	1103.0618      	1103.0356      	1103.0405      	1102.9839      	1103.1548      	1103.1208      	1103.0232      	1103.0775      	1103.0776      	1103.0848      	1103.0901      	1103.0875      	1103.0975      	1103.0833      	1103.1017      	1103.1036      	1103.1218      	1103.1091      	1103.3583      	1103.2255      	1103.0431      	1103.0096      	1102.9673      	1102.7712      	1102.61        	1103.1694      	1103.0852      	1103.0588      	1103.089       	1103.0101      	1103.0586      	1103.0557      	1103.0564      	1103.1208      	1103.0697      	1103.0656      	1103.0431      	1103.0208      	1103.0521      	1103.0333      	1103.0305      	1103.0483      	1102.987       	1102.9856      	1102.9553      	1102.9625      	1102.9711      	1103.2927      	1103.166       	1103.0493      	1102.9366      	1103.0364      	1102.977       	1102.9603      	1102.865       	1102.9208      	1102.9302      	1102.9607      	1102.8308      	1102.6967      	
1102.9777      	1103.0187      	1103.0215      	1102.9763      	1103.0066      	1102.9442      	1103.0002      	1103.0359      	1103.0155      	1103.0425      	1103.0513      	1103.0526      	1103.0593      	1103.0531      	1103.0839      	1103.1028      	1103.0833      	1103.0789      	1103.049       	1103.1115      	1103.0353      	1103.0575      	1103.0608      	1103.0371      	1103.069       	1103.0658      	1103.0311      	1103.0461      	1103.0874      	1103.0734      	1103.0496      	1103.0936      	1103.0697      	1103.0718      	1103.0682      	1103.0634      	1103.1699      	1103.13        	1103.0527      	1103.0984      	1103.0724      	1103.0482      	1103.1144      	1103.1389      	1103.1178      	1103.1036      	1103.1019      	1103.1252      	1103.0833      	1103.1075      	1103.1013      	1103.1011      	1103.0597      	1103.1404      	1103.2628      	1103.3137      	1103.2394      	1103.1532      	1103.073       	1103.2313      	1103.1277      	1103.0323      	1102.9995      	1102.8109      	1102.4733      	1103.0409      	1103.1146      	1103.0317      	1103.0337      	1103.0374      	1103.0332      	1102.9878      	1103.0393      	1103.0565      	1103.0056      	1103.005       	1103.0415      	1102.9991      	1103.006       	1102.9889      	1103.0557      	1103.0197      	1102.9623      	1103.0167      	1102.9817      	1102.9386      	1103.0292      	1103.2118      	1103.1962      	1103.0786      	1103.0024      	1103.02        	1102.9915      	1102.9061      	1102.9868      	1102.9858      	1102.9734      	1102.9995      	1102.8212      	1102.9866      	
1102.9296      	1102.9364      	1102.9532      	1103.0007      	1102.9462      	1103.043       	1102.9612      	1103.0227      	1102.9639      	1103.0903      	1102.9836      	1103.0347      	1103.0056      	1103.0906      	1103.1433      	1102.9912      	1103.0249      	1103.0518      	1103.0657      	1103.0529      	1102.9878      	1102.9908      	1102.9839      	1103.0441      	1102.9745      	1103.1384      	1103.0253      	1103.0138      	1103.0408      	1102.9419      	1103.0962      	1103.035       	1102.9836      	1102.9952      	1103.0978      	1103.0409      	1103.0477      	1102.9873      	1103.0657      	1103.0427      	1103.0271      	1103.0996      	1103.0558      	1103.009       	1103.1534      	1103.073       	1103.0944      	1103.015       	1103.1956      	1103.0419      	1103.0668      	1103.2733      	1103.167       	1103.0553      	1103.0751      	1103.1411      	1103.1027      	1103.0714      	1103.0681      	1103.0382      	1103.0383      	1103.0667      	1102.8843      	1102.8663      	1102.5037      	1102.7993      	1102.9514      	1102.9403      	1103.1003      	1103.0234      	1103.0496      	1103.0546      	1103.0604      	1103.0646      	1103.0032      	1103.0178      	1103.0024      	1103.0249      	1103.0256      	1103.0183      	1102.9895      	1102.9963      	1103.0079      	1102.9657      	1102.9653      	1102.9277      	1102.939       	1102.9077      	1103.4196      	1103.0409      	1102.9412      	1103.0148      	1102.9927      	1102.8589      	1102.8977      	1102.9158      	1102.8837      	1102.879       	1102.8989      	1102.8734      	
1103.0531      	1103.0369      	1103.0533      	1103.0532      	1103.0603      	1103.0455      	1103.0215      	1103.0771      	1103.0681      	1103.0956      	1103.0577      	1103.1194      	1103.1194      	1103.0378      	1103.0868      	1103.0236      	1103.0642      	1103.0432      	1103.0724      	1103.1141      	1103.0997      	1103.0627      	1103.123       	1103.108       	1103.0692      	1103.0496      	1103.083       	1103.0636      	1103.0702      	1103.095       	1103.1565      	1103.1086      	1103.089       	1103.1124      	1103.1047      	1103.0782      	1103.1365      	1103.0817      	1103.0881      	1103.0977      	1103.0942      	1103.1697      	1103.046       	1103.1647      	1103.2228      	1103.2098      	1103.2612      	1103.1886      	1103.1395      	1103.1364      	1103.19        	1103.0995      	1103.1334      	1103.02        	1103.0662      	1103.0302      	1103.0836      	1103.0294      	1103.0111      	1103.029       	1102.9725      	1103.0175      	1102.8885      	1102.8446      	1102.6948      	1102.6299      	1102.8939      	1103.0337      	1102.9921      	1103.0382      	1103.0001      	1103.0376      	1103.0078      	1103.0552      	1103.0161      	1103.048       	1103.0742      	1103.0692      	1103.0062      	1102.9458      	1103.02        	1102.9862      	1102.9276      	1103.0221      	1102.9907      	1102.9363      	1102.9858      	1103.0343      	1103.3539      	1103.0919      	1102.9662      	1103.0658      	1103.0758      	1102.9929      	1103.0154      	1102.9348      	1102.9249      	1102.9683      	1102.9521      	1102.9552      	
1103.0718      	1103.0582      	1103.1099      	1102.9858      	1102.9504      	1103.2223      	1103.104       	1103.0928      	1103.1033      	1103.1011      	1103.1107      	1103.102       	1103.0939      	1103.1094      	1103.1381      	1103.1356      	1103.104       	1103.1179      	1103.103       	1103.1609      	1103.0819      	1103.0529      	1103.0779      	1103.1466      	1103.1096      	1103.0698      	1103.0669      	1103.06        	1103.0847      	1103.1245      	1103.1626      	1103.1581      	1103.1152      	1103.128       	1103.1384      	1103.138       	1103.211       	1103.1658      	1103.2277      	1103.1681      	1103.0697      	1103.1544      	1103.2802      	1103.33        	1103.2401      	1103.2         	1103.2593      	1103.2683      	1103.1256      	1103.184       	1103.0892      	1103.1409      	1103.0991      	1103.0815      	1103.1262      	1103.117       	1103.1237      	1103.0858      	1103.0724      	1103.0775      	1103.1177      	1103.0676      	1103           	1102.8938      	1102.779       	1102.8893      	1102.7249      	1103.1481      	1103.1035      	1103.096       	1103.0784      	1103.0083      	1103.0831      	1103.0074      	1103.075       	1103.0288      	1103.0474      	1103.0115      	1102.9761      	1103.0552      	1103.003       	1102.9888      	1103.0109      	1102.9807      	1102.9629      	1103.013       	1102.9303      	1102.9233      	1103.3109      	1103.1729      	1103.0253      	1103.0022      	1103.0698      	1102.9413      	1102.9148      	1102.9526      	1102.9178      	1102.9319      	1102.9016      	1102.9305      	
1102.9977      	1103.03        	1102.976       	1102.9404      	1102.9364      	1102.9706      	1103.0802      	1103.0493      	1103.0072      	1103.0376      	1103.0444      	1103.0356      	1103.0304      	1103.0157      	1103.0603      	1103.0383      	1103.0216      	1103.0474      	1102.9602      	1103.0537      	1103.0178      	1103.0046      	1103.0012      	1103.0271      	1103.0321      	1103.0455      	1102.9899      	1103.0393      	1103.0651      	1103.0542      	1103.1251      	1103.0625      	1103.0458      	1103.0828      	1103.0706      	1103.088       	1103.3611      	1103.2509      	1103.0913      	1103.1759      	1103.1882      	1103.1534      	1103.0935      	1103.075       	1103.0997      	1103.0538      	1103.0071      	1103.06        	1103.0471      	1102.9928      	1103.0521      	1103.0118      	1103.0577      	1102.9907      	1103.0609      	1102.9912      	1103.0128      	1103.0151      	1102.962       	1102.9666      	1103.0206      	1103.0002      	1103.0137      	1102.863       	1102.7349      	1102.5864      	1102.842       	1102.9983      	1103.0059      	1102.9551      	1102.9824      	1103.0284      	1102.9547      	1102.9825      	1102.9567      	1102.9426      	1102.96        	1102.9624      	1102.9164      	1102.8821      	1102.9999      	1102.8999      	1102.8953      	1102.9312      	1102.9077      	1102.9072      	1102.8326      	1102.9165      	1103.0101      	1103.1772      	1103.017       	1102.9236      	1103.0116      	1102.9901      	1102.9048      	1102.9319      	1102.8646      	1102.911       	1102.8553      	1102.8833      	
1103.0452      	1102.987       	1102.9973      	1103.16        	1103.0886      	1103.0438      	1103.1394      	1103.1155      	1103.1217      	1103.134       	1103.1487      	1103.2146      	1103.1267      	1103.1418      	1103.1837      	1103.1757      	1103.1161      	1103.1578      	1103.0876      	1103.1532      	1103.1024      	1103.1456      	1103.1296      	1103.0784      	1103.0806      	1103.0231      	1103.211       	1103.1265      	1103.1034      	1103.0952      	1103.1727      	1103.0222      	1103.2446      	1103.379       	1103.384       	1103.3203      	1103.3458      	1103.254       	1103.227       	1103.2083      	1103.2126      	1103.2103      	1103.184       	1103.1372      	1103.1678      	1103.1602      	1103.1362      	1103.1426      	1103.1237      	1103.1482      	1103.1307      	1103.1255      	1103.1106      	1103.1099      	1103.1075      	1103.1217      	1103.1024      	1103.0801      	1103.0876      	1103.1239      	1103.161       	1103.1337      	1103.0249      	1102.9756      	1102.9044      	1102.532       	1102.6787      	1103.1145      	1103.14        	1103.0608      	1103.0818      	1103.037       	1103.0066      	1103.0592      	1103.0829      	1102.9738      	1102.9851      	1103.0548      	1103.0408      	1103.0164      	1103.0756      	1103           	1103.0333      	1103.02        	1103.0515      	1102.9729      	1103.0099      	1103.0594      	1103.0465      	1103.3567      	1103.1425      	1103.0697      	1103.1129      	1103.1033      	1103.0325      	1102.9939      	1103.0184      	1102.9989      	1103.0809      	1103.0558      	
1103.2136      	1103.2267      	1103.1691      	1103.1366      	1103.3704      	1103.1926      	1103.2612      	1103.2885      	1103.2983      	1103.2374      	1103.3107      	1103.2598      	1103.3204      	1103.2244      	1103.3245      	1103.3363      	1103.2609      	1103.2736      	1103.2915      	1103.2804      	1103.2842      	1103.2743      	1103.2654      	1103.2866      	1103.3268      	1103.3733      	1103.3142      	1103.2522      	1103.2665      	1103.4786      	1103.5455      	1103.3982      	1103.3347      	1103.4198      	1103.3552      	1103.3165      	1103.4263      	1103.346       	1103.2804      	1103.303       	1103.3442      	1103.2856      	1103.2513      	1103.2794      	1103.29        	1103.248       	1103.2849      	1103.2942      	1103.2133      	1103.2456      	1103.2394      	1103.2261      	1103.2052      	1103.2323      	1103.2413      	1103.2778      	1103.23        	1103.2272      	1103.2329      	1103.2228      	1103.204       	1103.2109      	1103.1245      	1103.116       	1103.0214      	1102.6948      	1102.698       	1103.295       	1103.1794      	1103.1093      	1103.1853      	1103.1648      	1103.1489      	1103.1506      	1103.1718      	1103.1187      	1103.168       	1103.1072      	1103.1172      	1103.1184      	1103.1116      	1103.122       	1103.1346      	1103.119       	1103.118       	1103.1675      	1103.0763      	1103.1077      	1103.0867      	1103.5131      	1103.3046      	1103.1349      	1103.1515      	1103.2893      	1103.137       	1103.0315      	1103.1354      	1103.1278      	1103.1444      	1103.1737      	
1103.3142      	1103.2211      	1103.2253      	1103.2986      	1103.3353      	1103.3094      	1103.3497      	1103.3485      	1103.3586      	1103.4021      	1103.3029      	1103.3329      	1103.3452      	1103.352       	1103.2952      	1103.3817      	1103.3551      	1103.3304      	1103.3618      	1103.3679      	1103.3538      	1103.3339      	1103.3054      	1103.3702      	1103.3263      	1103.3286      	1103.3458      	1103.4253      	1103.7164      	1103.5847      	1103.4446      	1103.3873      	1103.4257      	1103.3756      	1103.3225      	1103.3627      	1103.3523      	1103.3285      	1103.3555      	1103.3456      	1103.305       	1103.3175      	1103.3468      	1103.3263      	1103.2964      	1103.2595      	1103.2881      	1103.2507      	1103.2639      	1103.2546      	1103.2852      	1103.2512      	1103.2701      	1103.2357      	1103.2283      	1103.2554      	1103.2292      	1103.242       	1103.2532      	1103.2303      	1103.2396      	1103.1819      	1103.272       	1103.2026      	1103.0817      	1102.9102      	1102.8553      	1102.9973      	1103.2346      	1103.2391      	1103.1997      	1103.2167      	1103.1848      	1103.2407      	1103.2257      	1103.1915      	1103.1997      	1103.1702      	1103.1702      	1103.1648      	1103.1766      	1103.1161      	1103.1598      	1103.173       	1103.1614      	1103.1217      	1103.1567      	1103.0917      	1103.1421      	1103.4581      	1103.3386      	1103.2479      	1103.2179      	1103.2811      	1103.229       	1103.1782      	1103.2261      	1103.2023      	1103.2083      	1103.2372      	
1103.2797      	1103.2563      	1103.2083      	1103.2614      	1103.3065      	1103.3239      	1103.293       	1103.2853      	1103.2903      	1103.2852      	1103.3185      	1103.3348      	1103.364       	1103.289       	1103.406       	1103.353       	1103.3525      	1103.315       	1103.3293      	1103.2823      	1103.2991      	1103.3126      	1103.2831      	1103.298       	1103.3403      	1103.2847      	1103.3762      	1103.7009      	1103.4956      	1103.4639      	1103.3947      	1103.3546      	1103.3452      	1103.3531      	1103.3395      	1103.3002      	1103.2854      	1103.3235      	1103.3186      	1103.3125      	1103.3145      	1103.2428      	1103.26        	1103.2767      	1103.2432      	1103.2479      	1103.2563      	1103.2788      	1103.2544      	1103.225       	1103.251       	1103.2649      	1103.22        	1103.2487      	1103.238       	1103.292       	1103.237       	1103.2567      	1103.2908      	1103.2799      	1103.2643      	1103.2506      	1103.3025      	1103.1776      	1103.1262      	1102.9492      	1102.8251      	1102.8708      	1103.3837      	1103.2886      	1103.1956      	1103.2482      	1103.1986      	1103.2015      	1103.1846      	1103.1692      	1103.2029      	1103.1989      	1103.1594      	1103.2554      	1103.1129      	1103.1675      	1103.1619      	1103.1808      	1103.1722      	1103.1216      	1103.0884      	1103.1714      	1103.1573      	1103.3683      	1103.4952      	1103.3069      	1103.2368      	1103.2788      	1103.3044      	1103.2374      	1103.2195      	1103.2432      	1103.2599      	1103.2294      	
1103.4617      	1103.446       	1103.4037      	1103.423       	1103.5249      	1103.4952      	1103.5123      	1103.4773      	1103.516       	1103.4504      	1103.5255      	1103.4744      	1103.4497      	1103.4657      	1103.491       	1103.4886      	1103.495       	1103.45        	1103.4409      	1103.4491      	1103.479       	1103.4583      	1103.4264      	1103.4451      	1103.495       	1103.4364      	1103.804       	1103.7317      	1103.5452      	1103.5663      	1103.6104      	1103.5502      	1103.5388      	1103.5323      	1103.4928      	1103.5515      	1103.5272      	1103.5123      	1103.4878      	1103.5214      	1103.5002      	1103.4764      	1103.4442      	1103.4375      	1103.4758      	1103.4619      	1103.4012      	1103.4431      	1103.4027      	1103.4182      	1103.4097      	1103.3765      	1103.4125      	1103.3912      	1103.4237      	1103.4071      	1103.3801      	1103.3779      	1103.4386      	1103.3826      	1103.4205      	1103.3639      	1103.421       	1103.4556      	1103.3253      	1103.1403      	1103.0725      	1102.9519      	1103.5164      	1103.4236      	1103.4288      	1103.3905      	1103.4043      	1103.367       	1103.3695      	1103.3605      	1103.3821      	1103.3302      	1103.3326      	1103.3168      	1103.3676      	1103.3749      	1103.3542      	1103.3445      	1103.3312      	1103.3667      	1103.3091      	1103.3954      	1103.3577      	1103.421       	1103.8239      	1103.5857      	1103.4592      	1103.4645      	1103.4718      	1103.5349      	1103.4576      	1103.4094      	1103.4591      	1103.5048      	
1103.7518      	1103.7317      	1103.6506      	1103.7866      	1103.8422      	1103.8035      	1103.7408      	1103.7482      	1103.7545      	1103.7499      	1103.756       	1103.8077      	1103.721       	1103.7206      	1103.745       	1103.754       	1103.715       	1103.7509      	1103.7141      	1103.7417      	1103.7592      	1103.7507      	1103.6902      	1103.7544      	1103.7339      	1103.7589      	1104.1287      	1103.997       	1103.8549      	1103.8234      	1103.8523      	1103.7957      	1103.7264      	1103.8206      	1103.7922      	1103.7992      	1103.8132      	1103.7468      	1103.7693      	1103.7527      	1103.758       	1103.8105      	1103.7618      	1103.7207      	1103.7229      	1103.7589      	1103.7177      	1103.7192      	1103.6887      	1103.7079      	1103.7294      	1103.7726      	1103.6932      	1103.6819      	1103.7119      	1103.6952      	1103.7557      	1103.703       	1103.7303      	1103.6838      	1103.6892      	1103.6953      	1103.6558      	1103.646       	1103.6534      	1103.5498      	1103.3634      	1103.0338      	1103.8741      	1103.6412      	1103.7407      	1103.6412      	1103.6545      	1103.628       	1103.6245      	1103.6459      	1103.6804      	1103.6073      	1103.6971      	1103.6855      	1103.5856      	1103.6493      	1103.7014      	1103.6576      	1103.6375      	1103.7007      	1103.743       	1103.6824      	1103.603       	1103.6471      	1103.938       	1103.9683      	1103.7963      	1103.8093      	1103.8041      	1103.7756      	1103.7362      	1103.7352      	1103.7715      	1103.7532      	
1104.0219      	1103.9813      	1103.9515      	1104.012       	1104.0168      	1104.0544      	1104.0483      	1104.0896      	1104.041       	1104.0413      	1104.06        	1104.0552      	1104.0741      	1104.0201      	1104.0118      	1104.0126      	1104.052       	1104.0321      	1104.0216      	1103.9601      	1104.0269      	1104.0543      	1104.0189      	1104.0261      	1104.0089      	1104.0151      	1104.2954      	1104.3085      	1104.1411      	1104.108       	1104.1143      	1104.1027      	1104.033       	1104.129       	1104.0812      	1104.04        	1104.0452      	1104.0032      	1104.012       	1103.9955      	1103.9825      	1103.9984      	1104.0134      	1103.9604      	1103.9174      	1104.0265      	1103.9114      	1103.9122      	1103.8976      	1103.9816      	1103.923       	1103.9446      	1103.9604      	1103.9252      	1103.9625      	1103.968       	1103.9407      	1103.9929      	1103.91        	1103.9304      	1103.9923      	1103.922       	1104.013       	1103.9763      	1103.9204      	1103.9524      	1103.6063      	1103.3607      	1103.6702      	1103.9832      	1103.9485      	1103.8678      	1104.0183      	1103.9093      	1103.9442      	1103.911       	1103.8591      	1103.9286      	1103.9036      	1103.9003      	1103.8274      	1103.8944      	1103.9692      	1103.8726      	1103.9023      	1103.9639      	1103.8646      	1103.9412      	1103.9634      	1103.9454      	1104.0332      	1104.3142      	1104.0483      	1104.0662      	1104.0963      	1104.085       	1104.1079      	1104.0262      	1104.0531      	1104.0657      	
1104.2931      	1104.2294      	1104.23        	1104.1869      	1104.2561      	1104.253       	1104.3163      	1104.2852      	1104.2743      	1104.2688      	1104.2643      	1104.2682      	1104.2926      	1104.2417      	1104.2332      	1104.2585      	1104.2157      	1104.2242      	1104.2234      	1104.2408      	1104.2351      	1104.2665      	1104.2642      	1104.2434      	1104.2365      	1104.211       	1104.3022      	1104.6794      	1104.3995      	1104.3293      	1104.3523      	1104.2906      	1104.2334      	1104.2408      	1104.2125      	1104.2312      	1104.1903      	1104.2078      	1104.1655      	1104.1486      	1104.1545      	1104.1686      	1104.1226      	1104.1501      	1104.1528      	1104.2358      	1104.2554      	1104.2019      	1104.1609      	1104.1451      	1104.1802      	1104.1519      	1104.1337      	1104.1812      	1104.2134      	1104.1156      	1104.1678      	1104.2227      	1104.134       	1104.2053      	1104.2385      	1104.1382      	1104.0946      	1104.2156      	1104.1602      	1104.1736      	1103.8276      	1103.8483      	1103.6075      	1104.3202      	1104.1956      	1104.1545      	1104.1678      	1104.1261      	1104.1288      	1104.1348      	1104.0963      	1104.1677      	1104.1211      	1104.0802      	1104.129       	1104.1576      	1104.092       	1104.0673      	1104.1554      	1104.0505      	1104.1339      	1104.115       	1104.1661      	1104.0793      	1104.4388      	1104.3823      	1104.3197      	1104.2527      	1104.2838      	1104.3048      	1104.2275      	1104.1433      	1104.2375      	1104.1904      	
1104.2467      	1104.1818      	1103.9796      	1104.0464      	1104.2924      	1104.2665      	1104.3573      	1104.2876      	1104.2656      	1104.2673      	1104.2449      	1104.176       	1104.218       	1104.1521      	1104.2434      	1104.2034      	1104.1433      	1104.211       	1104.1829      	1104.1907      	1104.2224      	1104.1852      	1104.2217      	1104.2212      	1104.1792      	1104.2366      	1104.2216      	1104.6538      	1104.4631      	1104.3505      	1104.3314      	1104.2994      	1104.2197      	1104.2148      	1104.1896      	1104.1864      	1104.1727      	1104.2185      	1104.1849      	1104.1649      	1104.1938      	1104.173       	1104.1302      	1104.1431      	1104.1075      	1104.1167      	1104.1741      	1104.1161      	1104.1328      	1104.1362      	1104.0936      	1104.039       	1104.1932      	1104.1227      	1104.1155      	1104.1501      	1104.1772      	1104.2169      	1104.1871      	1104.1876      	1104.0795      	1104.2906      	1104.1082      	1104.1022      	1104.2073      	1104.0858      	1103.8573      	1103.8933      	1103.6919      	1104.2327      	1104.0911      	1104.0626      	1104.0834      	1104.1013      	1104.0801      	1104.0825      	1104.0715      	1104.0215      	1104.0653      	1104.011       	1104.0897      	1104.0266      	1104.0419      	1104.0977      	1104.0232      	1103.9818      	1104.0238      	1104.0685      	1104.0741      	1104.0591      	1104.1105      	1104.478       	1104.2703      	1104.1685      	1104.1586      	1104.2263      	1104.2493      	1104.1959      	1103.9988      	1104.186       	
1104.2302      	1104.0543      	1103.8702      	1103.8215      	1103.5597      	1104.2434      	1104.2268      	1104.1913      	1104.1807      	1104.0872      	1104.1476      	1104.1444      	1104.1614      	1104.1837      	1104.158       	1104.1241      	1104.1166      	1104.1812      	1104.1283      	1104.1345      	1104.1051      	1104.1075      	1104.1843      	1104.1968      	1104.1456      	1104.1866      	1104.1769      	1104.4641      	1104.4878      	1104.294       	1104.2839      	1104.2303      	1104.1815      	1104.1202      	1104.1664      	1104.173       	1104.0873      	1104.0502      	1103.983       	1104.2919      	1104.1028      	1104.0613      	1103.9474      	1104.0222      	1104.0784      	1103.9882      	1104.028       	1103.9977      	1104.0594      	1104.0087      	1104.0643      	1104.0396      	1104.0045      	1104.0103      	1103.9999      	1104.0121      	1104.064       	1104.0776      	1104.0587      	1104.0251      	1104.0662      	1104.0236      	1104.0859      	1103.9336      	1104.0251      	1103.9497      	1103.828       	1103.6232      	1103.6549      	1104.1506      	1103.9844      	1103.9474      	1103.9995      	1103.9814      	1103.9431      	1103.9316      	1104.0048      	1103.9579      	1103.9374      	1104.0408      	1103.9827      	1103.949       	1104.0073      	1103.9851      	1104.0724      	1103.9692      	1104.0554      	1104.0204      	1104.0242      	1104.0343      	1104.0834      	1104.347       	1104.3181      	1104.2222      	1104.1938      	1104.1759      	1104.1235      	1104.0867      	1104.1074      	1104.072       	
1104.1025      	1103.9807      	1103.872       	1103.7372      	1103.2766      	1103.8706      	1104.0984      	1104.0037      	1104.0123      	1103.973       	1103.9863      	1104.0282      	1104.0027      	1103.9543      	1103.9954      	1103.963       	1103.9435      	1103.9822      	1104.0126      	1103.9314      	1103.9785      	1103.9227      	1103.9451      	1103.9039      	1103.9624      	1103.9694      	1103.9744      	1104.0327      	1104.2811      	1104.0413      	1103.9366      	1103.9686      	1103.9517      	1103.9608      	1103.8829      	1103.8689      	1103.8372      	1103.7742      	1103.9579      	1103.865       	1103.822       	1103.8969      	1103.8766      	1103.7693      	1103.8342      	1103.838       	1103.8225      	1103.8109      	1103.7112      	1103.9884      	1103.8035      	1103.896       	1103.8351      	1103.908       	1103.8015      	1103.8503      	1103.8225      	1103.8411      	1103.8765      	1103.8315      	1103.8995      	1103.8645      	1103.7701      	1103.8639      	1103.8834      	1103.7627      	1103.7849      	1103.5869      	1103.2003      	1103.8307      	1103.8868      	1103.8177      	1103.8313      	1103.7574      	1103.8181      	1103.7644      	1103.7494      	1103.8181      	1103.8247      	1103.738       	1103.8315      	1103.8419      	1103.8197      	1103.8047      	1103.7454      	1103.8823      	1103.739       	1103.8921      	1103.879       	1103.8353      	1103.821       	1104.1637      	1104.1396      	1104.0223      	1103.974       	1104.0084      	1104.0074      	1103.9586      	1103.97        	1103.9525      	
1103.7876      	1103.8064      	1103.7164      	1103.5194      	1103.1531      	1103.279       	1103.9106      	1103.7708      	1103.7908      	1103.6858      	1103.8473      	1103.7374      	1103.8215      	1103.6208      	1103.7737      	1103.5552      	1103.8043      	1103.6772      	1103.7214      	1103.6958      	1103.782       	1103.7152      	1103.7482      	1103.6708      	1103.7023      	1103.6522      	1103.6732      	1103.5369      	1104.0807      	1103.829       	1103.7395      	1103.7257      	1103.6973      	1103.625       	1103.5939      	1103.6105      	1103.5114      	1103.5825      	1103.5242      	1103.6047      	1103.5365      	1103.5048      	1103.5546      	1103.5183      	1103.5026      	1103.5021      	1103.5006      	1103.5667      	1103.5237      	1103.4464      	1103.5409      	1103.5259      	1103.5408      	1103.5553      	1103.4945      	1103.4994      	1103.5781      	1103.5034      	1103.5134      	1103.5646      	1103.5165      	1103.5548      	1103.5249      	1103.4982      	1103.4895      	1103.5653      	1103.4373      	1103.1604      	1103.0168      	1103.273       	1103.6047      	1103.3718      	1103.5559      	1103.3729      	1103.4738      	1103.3684      	1103.565       	1103.457       	1103.3766      	1103.477       	1103.4829      	1103.3589      	1103.4822      	1103.4586      	1103.5079      	1103.4207      	1103.5259      	1103.294       	1103.5776      	1103.5367      	1103.406       	1103.7091      	1103.8602      	1103.6616      	1103.6078      	1103.6907      	1103.639       	1103.6466      	1103.647       	1103.6112      	
1103.4855      	1103.3829      	1103.2915      	1103.1014      	1103.0399      	1102.9696      	1103.3185      	1103.3873      	1103.4465      	1103.4425      	1103.4443      	1103.4194      	1103.4366      	1103.3591      	1103.2827      	1103.488       	1103.3806      	1103.4845      	1103.3296      	1103.4366      	1103.3771      	1103.4404      	1103.4087      	1103.3707      	1103.2726      	1103.4211      	1103.4253      	1103.3794      	1103.5837      	1103.6716      	1103.5393      	1103.4094      	1103.3925      	1103.3624      	1103.3453      	1103.372       	1103.3293      	1103.1941      	1103.3527      	1103.3126      	1103.2147      	1103.3009      	1103.2563      	1103.3241      	1103.3214      	1103.2993      	1103.3334      	1103.2953      	1103.3352      	1103.2134      	1103.4468      	1103.2654      	1103.3173      	1103.4536      	1103.2557      	1103.3157      	1103.2659      	1103.4314      	1103.3475      	1103.2148      	1103.4657      	1103.2979      	1103.3146      	1103.3608      	1103.3424      	1103.223       	1103.4138      	1103.12        	1102.7555      	1102.8522      	1103.406       	1103.3113      	1103.3049      	1103.289       	1103.2797      	1103.2472      	1103.2075      	1103.287       	1103.2919      	1103.2294      	1103.2946      	1103.2932      	1103.2155      	1103.3251      	1103.3025      	1103.3068      	1103.2861      	1103.296       	1103.3173      	1103.3174      	1103.3293      	1103.4679      	1103.7152      	1103.5845      	1103.5399      	1103.5402      	1103.5168      	1103.466       	1103.4548      	1103.4736      	
1103.3308      	1103.2739      	1103.1561      	1103.1046      	1102.7697      	1103.1152      	1103.032       	1103.4373      	1103.3954      	1103.2126      	1103.2556      	1103.2144      	1103.3557      	1103.3077      	1103.2145      	1103.3895      	1103.174       	1103.116       	1103.4314      	1103.2977      	1103.3295      	1103.2177      	1103.187       	1103.4374      	1103.3612      	1103.228       	1103.2855      	1103.09        	1103.5646      	1103.6686      	1103.4366      	1103.3481      	1103.3488      	1103.297       	1103.2776      	1103.1991      	1103.2327      	1103.2001      	1103.2347      	1103.2905      	1103.1769      	1103.219       	1103.2784      	1103.27        	1103.1741      	1103.279       	1103.2568      	1103.2472      	1103.2635      	1103.2704      	1103.215       	1103.2081      	1103.277       	1103.3104      	1103.272       	1103.1921      	1103.3472      	1103.2255      	1103.2351      	1103.3491      	1103.2826      	1103.3468      	1103.236       	1103.2401      	1103.3534      	1103.2107      	1103.331       	1103.0681      	1102.8436      	1102.9059      	1103.1847      	1103.2587      	1103.3009      	1103.2449      	1103.2903      	1103.2715      	1103.2405      	1103.1942      	1103.2668      	1103.2886      	1103.1774      	1103.2429      	1103.286       	1103.2639      	1103.2896      	1103.2031      	1103.3713      	1103.2899      	1103.2854      	1103.3955      	1103.2994      	1103.4153      	1103.6614      	1103.6545      	1103.5682      	1103.4858      	1103.526       	1103.4468      	1103.4529      	1103.5184      	
1103.3584      	1103.3041      	1103.1862      	1103.1193      	1103.0288      	1102.9137      	1103.1677      	1103.3899      	1103.3204      	1103.3728      	1103.3552      	1103.2856      	1103.3043      	1103.3755      	1103.2512      	1103.3815      	1103.4446      	1103.2971      	1103.2987      	1103.4084      	1103.3892      	1103.2905      	1103.286       	1103.4915      	1103.3289      	1103.416       	1103.3489      	1103.3429      	1103.4156      	1103.7869      	1103.5294      	1103.4237      	1103.4575      	1103.366       	1103.3091      	1103.2832      	1103.3029      	1103.1388      	1103.4006      	1103.3293      	1103.3588      	1103.3287      	1103.2733      	1103.2999      	1103.2878      	1103.2977      	1103.3044      	1103.2882      	1103.2905      	1103.2903      	1103.3629      	1103.315       	1103.362       	1103.3954      	1103.2625      	1103.4081      	1103.4034      	1103.4154      	1103.3652      	1103.4402      	1103.3888      	1103.3657      	1103.4117      	1103.4668      	1103.3115      	1103.3965      	1103.3914      	1103.2761      	1102.9409      	1103.2261      	1103.0166      	1103.4464      	1103.4095      	1103.3867      	1103.3452      	1103.3986      	1103.2919      	1103.3809      	1103.4413      	1103.2683      	1103.535       	1103.4485      	1103.4198      	1103.4233      	1103.4382      	1103.4617      	1103.4026      	1103.4122      	1103.5481      	1103.5232      	1103.5259      	1103.4899      	1103.778       	1103.7258      	1103.693       	1103.751       	1103.6243      	1103.6138      	1103.6188      	1103.5886      	
1103.6368      	1103.6195      	1103.5823      	1103.5275      	1103.2942      	1103.1062      	1103.2135      	1103.7576      	1103.633       	1103.6372      	1103.5704      	1103.5477      	1103.5913      	1103.571       	1103.6361      	1103.5957      	1103.6259      	1103.4944      	1103.705       	1103.4647      	1103.493       	1103.6415      	1103.6754      	1103.6075      	1103.6023      	1103.5758      	1103.6024      	1103.6272      	1103.6018      	1103.8698      	1103.9423      	1103.7213      	1103.659       	1103.5553      	1103.4955      	1103.5948      	1103.5198      	1103.4794      	1103.5977      	1103.513       	1103.4539      	1103.589       	1103.5498      	1103.5553      	1103.6039      	1103.4338      	1103.5884      	1103.5918      	1103.5334      	1103.6082      	1103.6118      	1103.5503      	1103.5955      	1103.5829      	1103.602       	1103.652       	1103.5916      	1103.5946      	1103.6425      	1103.6067      	1103.6688      	1103.6973      	1103.624       	1103.6356      	1103.6145      	1103.606       	1103.5474      	1103.5381      	1103.3723      	1103.2631      	1103.2996      	1103.7208      	1103.654       	1103.6571      	1103.6589      	1103.6866      	1103.67        	1103.6774      	1103.6743      	1103.6718      	1103.6945      	1103.6516      	1103.6566      	1103.6222      	1103.7036      	1103.7777      	1103.5614      	1103.8284      	1103.7684      	1103.7097      	1103.7955      	1103.7623      	1103.9094      	1104.1862      	1103.9377      	1104.0011      	1103.9312      	1103.9224      	1103.8503      	1103.9042      	
1103.8644      	1103.7988      	1103.7238      	1103.7231      	1103.6902      	1103.3314      	1103.437       	1103.9177      	1103.8645      	1103.842       	1103.8259      	1103.7544      	1103.7919      	1103.8079      	1103.8468      	1103.7812      	1103.7717      	1103.825       	1103.8046      	1103.7756      	1103.853       	1103.8254      	1103.7847      	1103.8431      	1103.7167      	1103.8501      	1103.8488      	1103.837       	1103.8624      	1104.2262      	1103.9861      	1103.9464      	1103.9646      	1103.921       	1103.8064      	1103.7418      	1103.784       	1103.8142      	1103.751       	1103.8931      	1103.7806      	1103.7032      	1103.9276      	1103.856       	1103.7572      	1103.9701      	1103.7971      	1103.8396      	1103.9247      	1103.8445      	1103.83        	1103.941       	1103.8322      	1103.9259      	1103.9137      	1103.9082      	1103.8938      	1103.8229      	1103.8627      	1103.8317      	1103.9087      	1103.8954      	1103.8801      	1103.9165      	1104.0812      	1103.888       	1103.967       	1103.8411      	1103.7053      	1103.4062      	1103.4683      	1104.0741      	1103.9177      	1103.9581      	1103.849       	1103.9126      	1103.9109      	1103.908       	1103.9584      	1103.8927      	1103.9338      	1103.9065      	1103.9891      	1103.8965      	1103.9558      	1103.9858      	1104.0189      	1103.9608      	1103.9406      	1103.9615      	1104.0234      	1104.0175      	1104.0212      	1104.4384      	1104.2719      	1104.1921      	1104.1027      	1104.1393      	1104.1047      	1104.0656      	
1104.0103      	1103.964       	1103.9728      	1103.8846      	1103.7952      	1103.5374      	1103.663       	1103.7996      	1104.0575      	1103.9331      	1103.9983      	1103.9868      	1104.0001      	1103.9384      	1104.0177      	1103.9462      	1104.0006      	1103.9462      	1103.9568      	1104.0599      	1103.9456      	1103.9636      	1104.0544      	1103.9816      	1104.0315      	1103.9514      	1104.0479      	1103.9952      	1103.9305      	1104.2119      	1104.3213      	1104.1355      	1104.0607      	1104.0244      	1104.0272      	1103.9596      	1103.9393      	1103.9468      	1103.8751      	1104.051       	1104.0216      	1104.0007      	1104.086       	1104.0432      	1103.9247      	1104.0671      	1103.9882      	1103.9933      	1103.9983      	1103.9795      	1104.1376      	1104.017       	1104.0822      	1104.0564      	1103.9861      	1104.0912      	1104.0607      	1104.0822      	1104.0802      	1104.0376      	1104.1294      	1104.0981      	1104.079       	1104.1003      	1104.0911      	1104.0914      	1104.0856      	1104.1317      	1103.8927      	1103.605       	1103.7634      	1103.9866      	1104.146       	1104.071       	1104.0613      	1104.1147      	1104.0958      	1104.0203      	1104.0741      	1104.104       	1104.0311      	1104.0933      	1104.1316      	1104.0886      	1104.0698      	1104.2556      	1104.1503      	1104.1333      	1104.1257      	1104.2378      	1104.1788      	1104.1608      	1104.1901      	1104.6371      	1104.3872      	1104.2639      	1104.3036      	1104.2981      	1104.3524      	1104.229       	
1104.1799      	1104.1667      	1104.1069      	1104.0427      	1104.0356      	1103.8198      	1103.886       	1103.8403      	1104.3027      	1104.1028      	1104.215       	1104.1829      	1104.2263      	1104.1061      	1104.2847      	1104.1301      	1104.1526      	1104.194       	1104.1569      	1104.1758      	1104.1757      	1104.1913      	1104.1803      	1104.1376      	1104.0076      	1104.296       	1104.1874      	1104.2261      	1104.1145      	1104.2855      	1104.5215      	1104.2908      	1104.2527      	1104.2776      	1104.2117      	1104.1757      	1104.1643      	1104.2057      	1104.1238      	1104.0432      	1104.2665      	1104.1816      	1104.19        	1104.194       	1104.1979      	1104.2029      	1104.2194      	1104.2166      	1104.2567      	1104.246       	1104.2258      	1104.2162      	1104.3062      	1104.2317      	1104.4021      	1104.2169      	1104.3341      	1104.2997      	1104.3054      	1104.2874      	1104.2869      	1104.2595      	1104.3522      	1104.338       	1104.3032      	1104.3148      	1104.3164      	1104.3541      	1104.2056      	1103.8928      	1103.701       	1104.3417      	1104.2478      	1104.283       	1104.2433      	1104.2935      	1104.2888      	1104.3214      	1104.3234      	1104.2898      	1104.3845      	1104.3124      	1104.3433      	1104.406       	1104.3837      	1104.397       	1104.4285      	1104.4373      	1104.4148      	1104.3976      	1104.4016      	1104.4806      	1104.4729      	1104.5157      	1104.5751      	1104.4641      	1104.5314      	1104.5522      	1104.5261      	1104.4774      	
1104.4795      	1104.4504      	1104.3755      	1104.3324      	1104.3204      	1104.0936      	1104.0594      	1104.0295      	1104.468       	1104.4617      	1104.4619      	1104.4456      	1104.3999      	1104.4478      	1104.4669      	1104.4114      	1104.444       	1104.3552      	1104.5105      	1104.3662      	1104.4576      	1104.3064      	1104.5646      	1104.4247      	1104.4089      	1104.3997      	1104.4415      	1104.3735      	1104.3268      	1104.3944      	1104.7235      	1104.6561      	1104.5338      	1104.479       	1104.4907      	1104.4009      	1104.4172      	1104.4188      	1104.4471      	1104.3995      	1104.3435      	1104.454       	1104.3995      	1104.4875      	1104.4895      	1104.3741      	1104.455       	1104.461       	1104.4724      	1104.479       	1104.5035      	1104.4679      	1104.499       	1104.4463      	1104.5244      	1104.5269      	1104.53        	1104.5806      	1104.5079      	1104.4753      	1104.62        	1104.4419      	1104.5188      	1104.5276      	1104.4178      	1104.6107      	1104.4849      	1104.5033      	1104.4044      	1104.2561      	1104.1226      	1104.1458      	1104.5812      	1104.4629      	1104.4415      	1104.4146      	1104.5807      	1104.4933      	1104.4463      	1104.5337      	1104.5453      	1104.5785      	1104.4999      	1104.5824      	1104.5896      	1104.5847      	1104.5607      	1104.6786      	1104.5519      	1104.6171      	1104.5791      	1104.7455      	1104.6542      	1104.6171      	1104.6333      	1104.7493      	1104.8376      	1104.6971      	1104.7609      	1104.6769      	
1104.5767      	1104.5631      	1104.5754      	1104.5272      	1104.3937      	1104.3837      	1104.1818      	1104.2238      	1104.725       	1104.6405      	1104.5436      	1104.6003      	1104.5764      	1104.558       	1104.56        	1104.6295      	1104.6394      	1104.5991      	1104.5544      	1104.6239      	1104.481       	1104.645       	1104.5751      	1104.6051      	1104.5253      	1104.577       	1104.522       	1104.6254      	1104.5579      	1104.5155      	1104.7921      	1104.8811      	1104.6346      	1104.6781      	1104.6277      	1104.5997      	1104.5706      	1104.5702      	1104.5344      	1104.5981      	1104.6194      	1104.5931      	1104.6154      	1104.6296      	1104.6829      	1104.6372      	1104.6323      	1104.6246      	1104.6783      	1104.6558      	1104.6405      	1104.6532      	1104.7869      	1104.6224      	1104.6296      	1104.6415      	1104.6869      	1104.707       	1104.7361      	1104.6769      	1104.705       	1104.6925      	1104.662       	1104.7638      	1104.7057      	1104.6991      	1104.7172      	1104.7042      	1104.6565      	1104.362       	1104.3511      	1104.1956      	1104.8545      	1104.7476      	1104.6837      	1104.6539      	1104.6724      	1104.702       	1104.7004      	1104.7106      	1104.674       	1104.6825      	1104.7532      	1104.7296      	1104.7217      	1104.7717      	1104.7797      	1104.7968      	1104.771       	1104.8545      	1104.7428      	1104.8185      	1104.8735      	1104.8201      	1104.8363      	1104.8118      	1104.9916      	1104.8817      	1104.9299      	1104.7491      	
1104.8695      	1104.8132      	1104.8192      	1104.8352      	1104.7661      	1104.7883      	1104.4929      	1104.4224      	1104.8427      	1104.8876      	1104.8501      	1104.8582      	1104.8859      	1104.852       	1104.9138      	1104.9277      	1104.8367      	1104.8364      	1104.8506      	1104.8136      	1104.9001      	1104.8374      	1104.825       	1104.8677      	1104.8751      	1104.8419      	1104.8423      	1104.8794      	1104.826       	1104.8876      	1104.8491      	1105.2075      	1105.0027      	1104.9418      	1104.9288      	1104.9404      	1104.8644      	1104.866       	1104.8398      	1104.9143      	1104.8384      	1104.9475      	1104.9802      	1104.8851      	1104.9092      	1104.9636      	1104.9861      	1104.9373      	1104.8356      	1105.073       	1104.9774      	1104.9635      	1104.9409      	1104.9337      	1105.0038      	1105.0135      	1104.9156      	1105.0454      	1104.9507      	1105.032       	1104.9656      	1104.9595      	1104.9393      	1105.0051      	1105.041       	1105.0017      	1104.9631      	1104.9647      	1105.0249      	1104.7957      	1104.5345      	1104.513       	1104.9087      	1104.9767      	1105.0037      	1104.9878      	1104.9728      	1105.0143      	1104.9905      	1104.9993      	1105.0215      	1105.091       	1105.0115      	1105.0779      	1104.999       	1105.135       	1105.0093      	1105.1245      	1105.0981      	1105.0483      	1105.1235      	1104.9983      	1105.2052      	1105.0327      	1105.1277      	1105.0293      	1105.1069      	1105.0879      	1105.1492      	1105.0782      	
1105.0444      	1105.0276      	1104.9933      	1105.0349      	1104.9487      	1104.9272      	1104.6984      	1104.6061      	1104.7349      	1105.1405      	1105.0039      	1105.0819      	1105.0311      	1105.0497      	1105.0665      	1105.0721      	1105.056       	1105.0067      	1105.1073      	1105.1167      	1105.0383      	1105.0356      	1105.0304      	1105.0564      	1105.0237      	1105.018       	1104.9819      	1104.9989      	1105.0453      	1105.0133      	1105.0366      	1105.3743      	1105.2361      	1105.1426      	1105.1543      	1105.1272      	1105.0438      	1105.0575      	1105.0872      	1105.092       	1105.0966      	1105.095       	1105.0944      	1105.0968      	1105.13        	1105.1515      	1105.1721      	1105.1522      	1105.1746      	1104.9692      	1105.345       	1105.1738      	1105.1903      	1105.1542      	1105.197       	1105.1583      	1105.2032      	1105.191       	1105.2068      	1105.1194      	1105.1809      	1105.2036      	1105.176       	1105.1962      	1105.1985      	1105.1886      	1105.133       	1105.2144      	1105.2126      	1105.0111      	1104.9426      	1104.7385      	1104.7588      	1105.2882      	1105.1956      	1105.2253      	1105.2051      	1105.1743      	1105.2316      	1105.2156      	1105.2681      	1105.2157      	1105.2488      	1105.1659      	1105.3505      	1105.2758      	1105.187       	1105.2267      	1105.3568      	1105.2766      	1105.2886      	1105.2573      	1105.3269      	1105.2542      	1105.2603      	1105.274       	1105.2952      	1105.2927      	1105.2521      	1105.2123      	
1105.1931      	1105.1968      	1105.1313      	1105.1459      	1105.1534      	1105.0819      	1104.8992      	1104.854       	1104.6351      	1105.3221      	1105.2219      	1105.1407      	1105.2776      	1105.1926      	1105.1232      	1105.1913      	1105.1691      	1105.2115      	1105.1698      	1105.2018      	1105.1908      	1105.1691      	1105.1718      	1105.2097      	1105.1777      	1105.1528      	1105.1898      	1105.1443      	1105.1796      	1105.1545      	1105.1255      	1105.4116      	1105.4546      	1105.3054      	1105.2719      	1105.2659      	1105.2454      	1105.252       	1105.2981      	1105.1938      	1105.1628      	1105.2484      	1105.2794      	1105.3032      	1105.2717      	1105.2297      	1105.3124      	1105.3135      	1105.3203      	1105.3159      	1105.3036      	1105.3171      	1105.2908      	1105.3398      	1105.3029      	1105.308       	1105.3235      	1105.3558      	1105.2909      	1105.3857      	1105.3417      	1105.3608      	1105.3635      	1105.3174      	1105.3456      	1105.3418      	1105.2617      	1105.3425      	1105.3093      	1105.2937      	1105.0968      	1104.9669      	1104.9521      	1105.2312      	1105.3883      	1105.3248      	1105.3591      	1105.2919      	1105.0876      	1105.55        	1105.3602      	1105.3185      	1105.2527      	1105.4525      	1105.3455      	1105.2854      	1105.3684      	1105.4462      	1105.4437      	1105.4015      	1105.3716      	1105.4849      	1105.4034      	1105.3654      	1105.4037      	1105.3583      	1105.3136      	1105.452       	1105.4285      	1105.3741      	
1105.242       	1105.2156      	1105.1343      	1105.2266      	1105.2966      	1105.2726      	1105.132       	1104.8771      	1105.075       	1105.0897      	1105.3527      	1105.2999      	1105.2631      	1105.1415      	1105.4152      	1105.3058      	1105.302       	1105.2845      	1105.2511      	1105.2872      	1105.2703      	1105.2251      	1105.1185      	1105.4034      	1105.3156      	1105.24        	1105.2489      	1105.2511      	1105.3126      	1105.1711      	1105.3218      	1105.498       	1105.5885      	1105.4016      	1105.3772      	1105.3645      	1105.3397      	1105.3541      	1105.3726      	1105.3475      	1105.2573      	1105.3738      	1105.3593      	1105.321       	1105.3856      	1105.3275      	1105.4031      	1105.3955      	1105.3849      	1105.3638      	1105.4062      	1105.371       	1105.4655      	1105.5018      	1105.3102      	1105.4937      	1105.412       	1105.4557      	1105.3556      	1105.4745      	1105.4758      	1105.3763      	1105.3904      	1105.4647      	1105.4214      	1105.4338      	1105.3428      	1105.4855      	1105.356       	1105.3544      	1105.3867      	1104.9893      	1105.157       	1105.1028      	1105.4619      	1105.4462      	1105.3976      	1105.4376      	1105.4022      	1105.4308      	1105.351       	1105.4966      	1105.3345      	1105.513       	1105.5078      	1105.4515      	1105.4755      	1105.4388      	1105.5774      	1105.4138      	1105.4305      	1105.6603      	1105.469       	1105.4708      	1105.552       	1105.343       	1105.5854      	1105.4617      	1105.4506      	1105.4412      	
1105.3313      	1105.2931      	1105.2351      	1105.2864      	1105.336       	1105.3342      	1105.2263      	1105.0284      	1105.094       	1104.9767      	1105.4728      	1105.3837      	1105.3395      	1105.3527      	1105.3625      	1105.2903      	1105.3873      	1105.3387      	1105.3717      	1105.3817      	1105.3435      	1105.3573      	1105.2599      	1105.3425      	1105.3978      	1105.2932      	1105.3458      	1105.2424      	1105.3635      	1105.3413      	1105.3208      	1105.4409      	1105.6707      	1105.5035      	1105.4528      	1105.396       	1105.3643      	1105.426       	1105.4391      	1105.405       	1105.3713      	1105.4673      	1105.3982      	1105.461       	1105.3846      	1105.4811      	1105.4109      	1105.477       	1105.4492      	1105.4702      	1105.464       	1105.5125      	1105.4825      	1105.489       	1105.5251      	1105.4465      	1105.4963      	1105.4431      	1105.5077      	1105.4396      	1105.4954      	1105.4128      	1105.2792      	1105.4398      	1105.6302      	1105.3225      	1105.5028      	1105.3729      	1105.4783      	1105.2227      	1105.4294      	1105.3772      	1105.0944      	1105.0663      	1105.5781      	1105.4764      	1105.4727      	1105.4976      	1105.479       	1105.4584      	1105.493       	1105.509       	1105.4636      	1105.5896      	1105.4968      	1105.503       	1105.5903      	1105.5117      	1105.5442      	1105.5077      	1105.5104      	1105.488       	1105.5728      	1105.4976      	1105.6154      	1105.318       	1105.5677      	1105.4689      	1105.4583      	1105.4999      	
1105.3176      	1105.2657      	1105.1758      	1105.2642      	1105.339       	1105.3314      	1105.2756      	1105.0668      	1104.9829      	1104.86        	1105.4155      	1105.3729      	1105.3058      	1105.3156      	1105.2029      	1105.1244      	1105.3951      	1105.2902      	1105.2092      	1105.2346      	1105.2505      	1105.2654      	1105.2467      	1105.2286      	1105.3055      	1105.2323      	1105.2098      	1105.2618      	1105.2452      	1105.2733      	1105.2626      	1105.2754      	1105.6493      	1105.3645      	1105.4089      	1105.3843      	1105.3527      	1105.2645      	1105.2844      	1105.4042      	1105.2545      	1105.285       	1105.3293      	1105.2927      	1105.2642      	1105.3259      	1105.2839      	1105.2931      	1105.3573      	1105.3254      	1105.274       	1105.3143      	1105.371       	1105.2814      	1105.2903      	1105.2346      	1105.367       	1105.2908      	1105.2843      	1105.3469      	1105.2711      	1105.1956      	1105.1956      	1105.2333      	1104.991       	1105.4017      	1105.328       	1105.1212      	1105.2104      	1105.2316      	1105.2743      	1105.2827      	1104.9698      	1105.1099      	1105.382       	1105.306       	1105.3112      	1105.3491      	1105.3176      	1105.3699      	1105.3442      	1105.3673      	1105.3684      	1105.3928      	1105.3301      	1105.3822      	1105.3584      	1105.3579      	1105.295       	1105.4436      	1105.3633      	1105.3774      	1105.3423      	1105.424       	1105.3486      	1105.3293      	1105.357       	1105.2727      	1105.2596      	1105.3174      	
1105.1573      	1105.0679      	1105.0275      	1105.136       	1105.1538      	1105.1733      	1105.1306      	1105.0519      	1104.6849      	1104.7134      	1105.3169      	1105.1821      	1105.2184      	1105.1244      	1105.185       	1105.1504      	1105.1659      	1105.122       	1105.124       	1105.1827      	1105.1396      	1105.1376      	1105.1272      	1105.1583      	1105.1499      	1105.0735      	1105.1047      	1105.1477      	1105.0988      	1105.0686      	1104.9731      	1105.2467      	1105.4263      	1105.3578      	1105.2109      	1105.2589      	1105.2656      	1105.25        	1105.2197      	1105.2606      	1105.2515      	1105.1915      	1105.1708      	1105.2802      	1105.2543      	1105.2593      	1105.2576      	1105.2416      	1105.257       	1105.2106      	1105.1506      	1105.299       	1105.198       	1105.2533      	1105.2045      	1105.2233      	1105.1792      	1105.2935      	1105.1436      	1105.261       	1105.231       	1105.0911      	1105.1335      	1105.2205      	1105.073       	1105.159       	1105.1119      	1105.2427      	1105.0824      	1105.1818      	1105.2314      	1105.094       	1104.8757      	1105.3464      	1105.2688      	1105.2733      	1105.258       	1105.2981      	1105.2653      	1105.2625      	1105.254       	1105.2496      	1105.2804      	1105.2488      	1105.2892      	1105.2687      	1105.3162      	1105.2847      	1105.2578      	1105.2855      	1105.2119      	1105.2761      	1105.274       	1105.2407      	1105.218       	1105.2375      	1105.2178      	1105.281       	1105.2485      	1105.2551      	
1105.1515      	1105.1257      	1105.0931      	1105.135       	1105.1407      	1105.1921      	1105.0643      	1104.9836      	1104.7703      	1104.9457      	1105.0288      	1105.2467      	1105.1165      	1105.1592      	1105.1727      	1105.1929      	1105.0808      	1105.1283      	1105.1665      	1105.0916      	1105.1176      	1105.1179      	1105.0768      	1105.0778      	1105.1691      	1105.137       	1105.0936      	1105.1136      	1105.0773      	1105.1469      	1105.0775      	1105.0831      	1105.1897      	1105.3832      	1105.2137      	1105.1492      	1105.1384      	1105.1631      	1105.113       	1105.1692      	1105.1409      	1105.1322      	1105.1182      	1105.1732      	1105.1202      	1105.189       	1105.1593      	1105.1611      	1105.0876      	1105.3604      	1105.114       	1105.2551      	1105.0945      	1105.0914      	1105.2007      	1104.9622      	1105.0603      	1105.2919      	1105.1842      	1105.0891      	1105.0624      	1105.1611      	1105.1398      	1105.1365      	1105.0226      	1105.1359      	1105.1359      	1105.0894      	1105.0388      	1105.033       	1105.175       	1105.2128      	1105.1833      	1105.1097      	1105.1887      	1105.1935      	1105.2206      	1105.1997      	1105.2042      	1105.2185      	1105.2352      	1105.2307      	1105.2191      	1105.2356      	1105.2445      	1105.2369      	1105.2294      	1105.2292      	1105.2491      	1105.187       	1105.2213      	1105.1925      	1105.1981      	1105.2212      	1105.2036      	1105.216       	1105.2042      	1105.198       	1105.1276      	1105.2019      	
1105.0447      	1105.0399      	1105.0073      	1104.9816      	1104.9966      	1105.1265      	1105.0417      	1104.9532      	1104.6705      	1104.8506      	1104.8948      	1105.2134      	1105.1659      	1105.0571      	1105.0775      	1105.138       	1105.1132      	1105.0704      	1105.1086      	1105.0809      	1105.0786      	1105.0742      	1105.0579      	1105.0748      	1105.117       	1105.0288      	1105.0292      	1105.0444      	1105.1108      	1105.0818      	1105.0701      	1105.0643      	1105.2102      	1105.5021      	1105.284       	1105.2356      	1105.2292      	1105.2023      	1105.1244      	1105.216       	1105.1694      	1105.1493      	1105.2421      	1105.1953      	1105.1342      	1105.2588      	1105.2001      	1105.1672      	1105.2513      	1105.0288      	1105.0773      	1105.1671      	1105.3118      	1105.2129      	1105.1443      	1105.2299      	1105.1829      	1105.1367      	1105.2236      	1105.0728      	1105.0917      	1105.1646      	1105.1724      	1105.1663      	1105.021       	1105.003       	1105.2441      	1105.214       	1105.1697      	1105.1776      	1105.187       	1105.1245      	1105.168       	1105.1653      	1105.2245      	1105.2186      	1105.1772      	1105.2518      	1105.2634      	1105.2136      	1105.2319      	1105.2136      	1105.2657      	1105.2737      	1105.2257      	1105.2599      	1105.2604      	1105.2697      	1105.2036      	1105.257       	1105.2383      	1105.2069      	1105.263       	1105.2188      	1105.2118      	1105.1884      	1105.1874      	1105.213       	1105.1417      	1105.2152      	
1105.065       	1105.0852      	1105.0682      	1104.9773      	1105.0535      	1105.0145      	1105.0452      	1104.9778      	1104.7892      	1104.8165      	1104.5681      	1105.1685      	1105.112       	1105.068       	1105.0646      	1104.9999      	1105.101       	1105.0393      	1105.0697      	1105.0096      	1105.0337      	1105.0741      	1105.0349      	1105.0538      	1105.0802      	1105.0519      	1104.9988      	1105.0658      	1105.0715      	1105.0839      	1105.0328      	1105.0577      	1105.1243      	1105.4962      	1105.3         	1105.2527      	1105.23        	1105.2264      	1105.2222      	1105.1935      	1105.2811      	1105.2366      	1105.203       	1105.2118      	1105.1619      	1105.1934      	1105.1564      	1105.3394      	1105.227       	1105.2844      	1105.1688      	1105.2694      	1105.1233      	1105.2053      	1105.2438      	1105.1448      	1105.1626      	1105.1118      	1105.1912      	1105.243       	1105.0431      	1105.2644      	1105.224       	1105.3502      	1105.3347      	1105.3483      	1105.2596      	1105.2759      	1105.28        	1105.3076      	1105.318       	1105.2667      	1105.23        	1105.3114      	1105.274       	1105.2644      	1105.3143      	1105.2759      	1105.2645      	1105.3422      	1105.3315      	1105.3015      	1105.3423      	1105.2382      	1105.3633      	1105.3333      	1105.3292      	1105.3184      	1105.3391      	1105.2721      	1105.2919      	1105.2944      	1105.3417      	1105.318       	1105.2866      	1105.2996      	1105.2681      	1105.2045      	1105.2786      	1105.2704      	
1105.2675      	1105.206       	1105.2186      	1105.2782      	1105.2695      	1105.3403      	1105.2434      	1105.1829      	1104.9897      	1104.963       	1104.8572      	1105.37        	1105.3145      	1105.2954      	1105.2422      	1105.236       	1105.248       	1105.2673      	1105.2203      	1105.3243      	1105.2393      	1105.1968      	1105.2743      	1105.3204      	1105.2302      	1105.3152      	1105.2389      	1105.2411      	1105.2296      	1105.2491      	1105.2563      	1105.2009      	1105.3073      	1105.6316      	1105.503       	1105.4423      	1105.3735      	1105.3833      	1105.3209      	1105.3491      	1105.2937      	1105.3445      	1105.2561      	1105.1652      	1105.4127      	1105.2694      	1105.2395      	1105.288       	1105.2479      	1105.247       	1105.2175      	1105.201       	1105.487       	1105.2263      	1105.1208      	1105.3755      	1105.3093      	1105.1466      	1105.482       	1105.3956      	1105.3466      	1105.3917      	1105.3213      	1105.3442      	1105.3644      	1105.3422      	1105.2976      	1105.3718      	1105.3337      	1105.4294      	1105.3625      	1105.4227      	1105.3451      	1105.4928      	1105.4187      	1105.3866      	1105.4248      	1105.4608      	1105.4885      	1105.4343      	1105.4368      	1105.4346      	1105.3674      	1105.4891      	1105.3741      	1105.4615      	1105.4452      	1105.3654      	1105.3113      	1105.3668      	1105.3403      	1105.4427      	1105.2983      	1105.4073      	1105.3263      	1105.3264      	1105.3542      	1105.3057      	1105.3323      	1105.3662      	
1105.4674      	1105.4398      	1105.3198      	1105.3618      	1105.4545      	1105.4608      	1105.5869      	1105.4203      	1105.3038      	1104.9755      	1105.0549      	1105.5541      	1105.5109      	1105.4673      	1105.4452      	1105.3125      	1105.5369      	1105.4979      	1105.4974      	1105.4595      	1105.4841      	1105.4819      	1105.4594      	1105.5115      	1105.5148      	1105.4265      	1105.4657      	1105.4114      	1105.507       	1105.5261      	1105.4921      	1105.4934      	1105.4985      	1105.7781      	1105.7336      	1105.5149      	1105.6746      	1105.6554      	1105.4944      	1105.5431      	1105.6476      	1105.612       	1105.5562      	1105.5947      	1105.5193      	1105.6254      	1105.4346      	1105.4774      	1105.5043      	1105.4548      	1105.5576      	1105.491       	1105.4943      	1105.5298      	1105.5187      	1105.8148      	1105.5692      	1105.5823      	1105.5659      	1105.6501      	1105.5071      	1105.5734      	1105.5575      	1105.5555      	1105.4874      	1105.6228      	1105.5482      	1105.575       	1105.5721      	1105.5448      	1105.6307      	1105.5945      	1105.5138      	1105.5878      	1105.5718      	1105.7065      	1105.4794      	1105.696       	1105.6367      	1105.6686      	1105.6373      	1105.7003      	1105.6908      	1105.6854      	1105.6724      	1105.6216      	1105.64        	1105.5973      	1105.6018      	1105.6415      	1105.6005      	1105.6016      	1105.5566      	1105.6113      	1105.5544      	1105.5292      	1105.5397      	1105.4478      	1105.6372      	1105.4453      	
1105.6082      	1105.5599      	1105.4357      	1105.4861      	1105.6028      	1105.6375      	1105.6022      	1105.6301      	1105.5662      	1105.2197      	1105.1199      	1105.4875      	1105.684       	1105.6239      	1105.5857      	1105.5953      	1105.6013      	1105.6052      	1105.5507      	1105.5034      	1105.6038      	1105.5997      	1105.613       	1105.5685      	1105.5271      	1105.6072      	1105.5984      	1105.4884      	1105.635       	1105.5609      	1105.5544      	1105.5526      	1105.5549      	1105.574       	1105.5691      	1105.7301      	1105.8096      	1105.6444      	1105.5792      	1105.6008      	1105.4641      	1105.6448      	1105.432       	1105.5956      	1105.6384      	1105.5583      	1105.5945      	1105.5747      	1105.4546      	1105.6627      	1105.6869      	1105.7158      	1105.6787      	1105.6321      	1105.6753      	1105.6465      	1105.6414      	1105.6613      	1105.6643      	1105.6422      	1105.583       	1105.6295      	1105.6659      	1105.6304      	1105.6241      	1105.6603      	1105.6638      	1105.6213      	1105.614       	1105.6558      	1105.5793      	1105.6018      	1105.6597      	1105.63        	1105.6486      	1105.7428      	1105.6075      	1105.6417      	1105.6978      	1105.7175      	1105.6686      	1105.7134      	1105.6138      	1105.7195      	1105.6316      	1105.6198      	1105.6843      	1105.6671      	1105.673       	1105.5856      	1105.6733      	1105.6466      	1105.6088      	1105.6042      	1105.6143      	1105.6172      	1105.6042      	1105.564       	1105.561       	1105.6914      	
1105.5416      	1105.5034      	1105.3903      	1105.4583      	1105.5465      	1105.5802      	1105.5435      	1105.5461      	1105.4689      	1105.3402      	1105.1005      	1105.2085      	1105.6398      	1105.5253      	1105.551       	1105.528       	1105.5208      	1105.5148      	1105.469       	1105.5493      	1105.484       	1105.5431      	1105.5125      	1105.4796      	1105.4991      	1105.5105      	1105.5105      	1105.5143      	1105.4746      	1105.4956      	1105.5504      	1105.4386      	1105.5095      	1105.5233      	1105.4761      	1105.5049      	1105.7892      	1105.4897      	1105.5505      	1105.5107      	1105.4221      	1105.5729      	1105.4006      	1105.367       	1105.5863      	1105.4402      	1105.5618      	1105.63        	1105.5763      	1105.6018      	1105.5703      	1105.5657      	1105.5919      	1105.5658      	1105.5552      	1105.5712      	1105.5974      	1105.6144      	1105.4954      	1105.5558      	1105.4729      	1105.5509      	1105.4828      	1105.5165      	1105.5612      	1105.4928      	1105.529       	1105.5092      	1105.5701      	1105.4833      	1105.4783      	1105.6105      	1105.5841      	1105.5618      	1105.599       	1105.5549      	1105.617       	1105.5345      	1105.5492      	1105.5175      	1105.588       	1105.566       	1105.5243      	1105.5319      	1105.5126      	1105.504       	1105.5437      	1105.5098      	1105.4993      	1105.533       	1105.4191      	1105.5087      	1105.5037      	1105.3999      	1105.4819      	1105.3915      	1105.325       	1105.5608      	1105.4099      	1105.4331      	
1105.4161      	1105.3914      	1105.3943      	1105.3678      	1105.414       	1105.3875      	1105.4196      	1105.3813      	1105.263       	1105.2335      	1105.0916      	1104.8384      	1105.4384      	1105.3185      	1105.3663      	1105.3856      	1105.3765      	1105.3328      	1105.354       	1105.3447      	1105.3313      	1105.3853      	1105.3341      	1105.3347      	1105.3456      	1105.295       	1105.3303      	1105.2759      	1105.3619      	1105.3589      	1105.3704      	1105.3749      	1105.3156      	1105.3391      	1105.3357      	1105.3976      	1105.4155      	1105.4338      	1105.3998      	1105.4161      	1105.4114      	1105.4025      	1105.4679      	1105.4155      	1105.4257      	1105.3837      	1105.409       	1105.3898      	1105.4633      	1105.3477      	1105.3682      	1105.4211      	1105.3943      	1105.3688      	1105.3937      	1105.3793      	1105.3993      	1105.396       	1105.3407      	1105.413       	1105.3293      	1105.4083      	1105.3733      	1105.3958      	1105.4105      	1105.4225      	1105.4327      	1105.4222      	1105.4008      	1105.4579      	1105.4283      	1105.4761      	1105.4463      	1105.4294      	1105.4857      	1105.4348      	1105.4125      	1105.4773      	1105.4115      	1105.4802      	1105.4304      	1105.4321      	1105.4492      	1105.3904      	1105.409       	1105.375       	1105.334       	1105.484       	1105.3307      	1105.3405      	1105.3798      	1105.3387      	1105.3513      	1105.1917      	1105.4589      	1105.3567      	1105.383       	1105.2515      	1105.138       	1105.423       	
1105.3724      	1105.3369      	1105.3555      	1105.4021      	1105.4155      	1105.3774      	1105.3215      	1105.4493      	1105.3312      	1105.3267      	1104.9807      	1105.0771      	1105.0815      	1105.4551      	1105.4034      	1105.3872      	1105.3586      	1105.3717      	1105.348       	1105.4093      	1105.3567      	1105.3535      	1105.3654      	1105.3396      	1105.3712      	1105.2274      	1105.3455      	1105.3599      	1105.3845      	1105.3794      	1105.2968      	1105.3242      	1105.3759      	1105.322       	1105.3235      	1105.3502      	1105.3475      	1105.3807      	1105.3926      	1105.3745      	1105.4016      	1105.3499      	1105.4308      	1105.406       	1105.3599      	1105.45        	1105.3917      	1105.4462      	1105.387       	1105.4364      	1105.4735      	1105.4692      	1105.3232      	1105.5048      	1105.3439      	1105.4697      	1105.3607      	1105.3726      	1105.3325      	1105.3757      	1105.464       	1105.4204      	1105.3749      	1105.492       	1105.4021      	1105.3806      	1105.4045      	1105.3866      	1105.5323      	1105.4725      	1105.4255      	1105.4813      	1105.4185      	1105.4619      	1105.4069      	1105.5151      	1105.4252      	1105.5444      	1105.3866      	1105.421       	1105.5542      	1105.469       	1105.4966      	1105.5259      	1105.4324      	1105.4758      	1105.4468      	1105.3196      	1105.5219      	1105.3947      	1105.3645      	1105.416       	1105.3688      	1105.3878      	1105.3055      	1105.415       	1105.3689      	1105.3516      	1105.3542      	1105.3611      	
1105.5867      	1105.531       	1105.5305      	1105.5613      	1105.5686      	1105.5476      	1105.5898      	1105.5443      	1105.3984      	1105.4645      	1105.2449      	1105.2576      	1105.0276      	1105.6486      	1105.5383      	1105.5457      	1105.503       	1105.5038      	1105.5168      	1105.5011      	1105.543       	1105.4901      	1105.492       	1105.4636      	1105.4885      	1105.4825      	1105.4419      	1105.5763      	1105.5347      	1105.5247      	1105.54        	1105.5007      	1105.5085      	1105.5398      	1105.5588      	1105.5256      	1105.5424      	1105.5616      	1105.6041      	1105.5712      	1105.5835      	1105.6053      	1105.5735      	1105.6013      	1105.587       	1105.5896      	1105.6089      	1105.5927      	1105.6267      	1105.6138      	1105.5938      	1105.635       	1105.6338      	1105.594       	1105.6232      	1105.4875      	1105.6206      	1105.5925      	1105.563       	1105.62        	1105.5757      	1105.6138      	1105.6259      	1105.6359      	1105.6564      	1105.5963      	1105.5913      	1105.6853      	1105.6313      	1105.6532      	1105.7013      	1105.6049      	1105.6545      	1105.645       	1105.713       	1105.6443      	1105.6759      	1105.678       	1105.6818      	1105.6855      	1105.6193      	1105.646       	1105.5994      	1105.64        	1105.7114      	1105.5624      	1105.6484      	1105.6206      	1105.6273      	1105.5999      	1105.6216      	1105.6378      	1105.6241      	1105.6031      	1105.5183      	1105.6423      	1105.6248      	1105.6368      	1105.6592      	1105.6267      	
1105.9045      	1105.8646      	1105.8506      	1105.8228      	1105.8905      	1105.9231      	1105.9231      	1105.8337      	1105.7946      	1106.038       	1105.6439      	1105.437       	1105.423       	1105.9464      	1105.9324      	1105.8203      	1105.8167      	1105.8903      	1105.8798      	1105.8381      	1105.8508      	1105.8748      	1105.8562      	1105.8726      	1105.7914      	1105.8478      	1105.8676      	1105.7911      	1105.8676      	1105.8573      	1105.8472      	1105.9001      	1105.8615      	1105.8911      	1105.8937      	1105.884       	1105.8676      	1105.8829      	1105.9098      	1105.9231      	1105.8712      	1105.8937      	1105.9015      	1105.9275      	1105.8684      	1105.8898      	1105.8689      	1105.8552      	1105.8983      	1105.8619      	1105.9207      	1105.8928      	1105.8804      	1105.8853      	1105.8843      	1105.947       	1105.845       	1105.9397      	1105.9032      	1105.9174      	1105.9071      	1105.9104      	1105.9408      	1105.935       	1105.9347      	1105.9452      	1105.9309      	1105.9176      	1105.9165      	1105.9774      	1105.9705      	1105.9924      	1105.9506      	1106.0326      	1105.9312      	1105.9001      	1105.9686      	1106.0575      	1105.9663      	1105.9797      	1105.9882      	1105.9341      	1105.9578      	1105.9543      	1105.9214      	1105.9191      	1105.9232      	1105.8861      	1105.9851      	1105.8575      	1105.9591      	1105.9075      	1105.8749      	1105.9233      	1105.8756      	1105.8539      	1105.8757      	1105.8268      	1105.9084      	1105.8628      	
1106.1401      	1106.0608      	1106.0873      	1106.0874      	1106.1189      	1106.1433      	1106.0677      	1106.0637      	1106.0499      	1106.203       	1106.0157      	1105.9114      	1105.7236      	1105.9535      	1106.1532      	1106.1267      	1106.1349      	1106.076       	1106.0809      	1106.085       	1106.1062      	1106.0757      	1106.0592      	1106.0872      	1106.1187      	1106.0356      	1106.0968      	1106.0742      	1106.1172      	1106.1006      	1106.0974      	1106.1509      	1106.0566      	1106.112       	1106.0825      	1106.0435      	1106.1731      	1106.1163      	1106.1046      	1106.1222      	1106.129       	1106.0745      	1106.1797      	1106.1698      	1106.1399      	1106.1117      	1106.1093      	1106.2034      	1106.1509      	1106.157       	1106.193       	1106.1716      	1106.17        	1106.1213      	1106.2203      	1106.0889      	1106.1321      	1106.1188      	1106.102       	1106.1307      	1106.1044      	1106.1401      	1106.1008      	1106.1259      	1106.1765      	1106.0903      	1106.0643      	1106.1392      	1106.1445      	1106.1172      	1106.1288      	1106.1188      	1106.1108      	1106.129       	1106.1616      	1106.2103      	1106.1293      	1106.0361      	1106.1742      	1106.1454      	1106.1205      	1106.0979      	1106.12        	1106.0682      	1106.0491      	1106.0951      	1106.0063      	1106.0507      	1106.0139      	1106.0642      	1106.0403      	1106.0736      	1106.0148      	1106.1053      	1106.0981      	1105.9586      	1106.0345      	1106.0117      	1105.9926      	1106.0463      	
1106.2415      	1106.2374      	1106.2725      	1106.3046      	1106.2439      	1106.0065      	1106.3575      	1106.0924      	1106.1086      	1106.2806      	1106.086       	1106.0983      	1105.6215      	1106.2255      	1106.2378      	1106.1829      	1106.1511      	1106.1544      	1106.1665      	1106.1704      	1106.1111      	1106.101       	1106.0962      	1106.1301      	1106.1226      	1106.1633      	1106.1283      	1106.1758      	1106.1683      	1106.1033      	1106.1146      	1106.1812      	1106.1367      	1106.1588      	1106.19        	1106.2043      	1106.213       	1106.2         	1106.2134      	1106.2712      	1106.2296      	1106.1984      	1106.2137      	1106.1683      	1106.1624      	1106.1927      	1106.2006      	1106.1473      	1106.1548      	1106.1979      	1106.1544      	1106.1589      	1106.1736      	1106.168       	1106.1583      	1106.1638      	1106.1989      	1106.1887      	1106.2196      	1106.2091      	1106.2001      	1106.1858      	1106.2072      	1106.1876      	1106.2483      	1106.1844      	1106.2048      	1106.1685      	1106.189       	1106.24        	1106.218       	1106.1823      	1106.1836      	1106.1464      	1106.1627      	1106.1583      	1106.1412      	1106.1779      	1106.1602      	1106.1396      	1106.1425      	1106.1229      	1106.1288      	1106.1207      	1106.0793      	1106.0868      	1106.0696      	1106.1417      	1106.1128      	1106.0803      	1106.0793      	1106.0872      	1106.0688      	1106.0653      	1106.0963      	1106.0354      	1106.1013      	1106.0471      	1106.0642      	1106.0613      	
1106.2104      	1106.2091      	1106.2427      	1106.1444      	1106.1405      	1106.232       	1106.2186      	1105.9558      	1106.2269      	1106.2385      	1106.1442      	1106.1486      	1105.8965      	1106.291       	1106.1857      	1106.1624      	1106.1915      	1106.2335      	1106.1642      	1106.1357      	1106.155       	1106.1262      	1106.1652      	1106.1786      	1106.176       	1106.1854      	1106.1614      	1106.1812      	1106.1604      	1106.2185      	1106.2297      	1106.2244      	1106.2052      	1106.1901      	1106.2799      	1106.2749      	1106.2294      	1106.2416      	1106.2595      	1106.2584      	1106.281       	1106.2616      	1106.2594      	1106.2444      	1106.1907      	1106.2247      	1106.2639      	1106.2697      	1106.2114      	1106.1968      	1106.2767      	1106.2415      	1106.2408      	1106.2319      	1106.2155      	1106.2722      	1106.2615      	1106.2568      	1106.2362      	1106.2568      	1106.2733      	1106.2523      	1106.2579      	1106.2706      	1106.2878      	1106.2681      	1106.2728      	1106.2529      	1106.263       	1106.2231      	1106.2767      	1106.2349      	1106.2201      	1106.2776      	1106.1677      	1106.2251      	1106.2274      	1106.2231      	1106.1721      	1106.1943      	1106.2109      	1106.2007      	1106.22        	1106.1592      	1106.155       	1106.2114      	1106.1774      	1106.1581      	1106.1672      	1106.1603      	1106.1724      	1106.2178      	1106.154       	1106.179       	1106.1382      	1106.1688      	1106.1685      	1106.1265      	1106.1648      	1106.1573      	
1106.4396      	1106.4021      	1106.346       	1106.2673      	1106.2697      	1106.2651      	1106.3147      	1106.2715      	1106.2938      	1106.3018      	1106.3254      	1106.5343      	1106.4265      	1106.4329      	1106.4598      	1106.3506      	1106.3972      	1106.3911      	1106.4128      	1106.4097      	1106.3956      	1106.4198      	1106.4137      	1106.4272      	1106.4016      	1106.4384      	1106.4523      	1106.5034      	1106.4851      	1106.5001      	1106.5631      	1106.4937      	1106.5072      	1106.5568      	1106.5099      	1106.529       	1106.5105      	1106.5452      	1106.5955      	1106.4849      	1106.5581      	1106.5464      	1106.5267      	1106.4849      	1106.5448      	1106.462       	1106.536       	1106.5667      	1106.529       	1106.4999      	1106.5356      	1106.5688      	1106.5099      	1106.5398      	1106.5422      	1106.5217      	1106.5798      	1106.5671      	1106.5122      	1106.547       	1106.551       	1106.5759      	1106.5486      	1106.5608      	1106.5623      	1106.6042      	1106.5842      	1106.5719      	1106.5969      	1106.6194      	1106.6077      	1106.6178      	1106.601       	1106.6062      	1106.6042      	1106.5862      	1106.563       	1106.596       	1106.5841      	1106.5942      	1106.5804      	1106.5848      	1106.5571      	1106.5627      	1106.6067      	1106.5087      	1106.5902      	1106.5724      	1106.5679      	1106.551       	1106.5704      	1106.5829      	1106.531       	1106.5629      	1106.4852      	1106.5809      	1106.5784      	1106.5822      	1106.5352      	1106.5579      	
1106.9933      	1107.0306      	1106.8284      	1106.7622      	1106.8734      	1106.9851      	1106.8379      	1106.9962      	1107.068       	1107.0377      	1107.0797      	1106.9965      	1107.0745      	1107.0374      	1107.0471      	1107.0574      	1107.0392      	1107.0122      	1107.0587      	1107.0558      	1107.0675      	1107.0262      	1107.0247      	1107.097       	1107.0437      	1107.0684      	1107.0575      	1107.0364      	1107.1001      	1107.0958      	1107.0913      	1107.0823      	1107.0813      	1107.0839      	1107.145       	1107.1399      	1107.1511      	1107.14        	1107.127       	1107.1484      	1107.179       	1107.1836      	1107.1654      	1107.1995      	1107.1571      	1107.1803      	1107.1163      	1107.1984      	1107.1505      	1107.1083      	1107.2374      	1107.2167      	1107.2286      	1107.1694      	1107.2065      	1107.2312      	1107.2117      	1107.2397      	1107.2031      	1107.2303      	1107.2263      	1107.2144      	1107.2019      	1107.3005      	1107.2421      	1107.2471      	1107.2714      	1107.2611      	1107.2968      	1107.2665      	1107.2781      	1107.2883      	1107.3075      	1107.2909      	1107.2622      	1107.2743      	1107.2878      	1107.2216      	1107.3359      	1107.3132      	1107.2573      	1107.3037      	1107.3118      	1107.3373      	1107.2605      	1107.2876      	1107.3135      	1107.2584      	1107.3138      	1107.2776      	1107.3046      	1107.2754      	1107.3182      	1107.2693      	1107.3212      	1107.3407      	1107.2745      	1107.3352      	1107.2694      	1107.3147      	
1107.5558      	1107.4865      	1107.4763      	1107.4249      	1107.6458      	1107.6437      	1107.612       	1107.6171      	1107.6166      	1107.564       	1107.5597      	1107.5334      	1107.5867      	1107.581       	1107.5682      	1107.6189      	1107.5786      	1107.6304      	1107.5674      	1107.6195      	1107.6178      	1107.5696      	1107.6082      	1107.5994      	1107.6224      	1107.5912      	1107.678       	1107.6913      	1107.6173      	1107.6658      	1107.6599      	1107.6691      	1107.6443      	1107.6918      	1107.6558      	1107.6072      	1107.6661      	1107.6113      	1107.6251      	1107.5874      	1107.6263      	1107.6494      	1107.5956      	1107.5667      	1107.6097      	1107.5706      	1107.6008      	1107.6072      	1107.612       	1107.572       	1107.6061      	1107.5858      	1107.6053      	1107.578       	1107.5769      	1107.5929      	1107.5857      	1107.577       	1107.6433      	1107.5796      	1107.6187      	1107.5813      	1107.6116      	1107.6343      	1107.6266      	1107.6698      	1107.5977      	1107.6399      	1107.6183      	1107.6512      	1107.5283      	1107.6301      	1107.5745      	1107.6411      	1107.5812      	1107.545       	1107.5675      	1107.588       	1107.5356      	1107.5692      	1107.5312      	1107.5712      	1107.5496      	1107.5173      	1107.5704      	1107.5063      	1107.495       	1107.5247      	1107.4934      	1107.4987      	1107.5292      	1107.5293      	1107.4764      	1107.5314      	1107.4897      	1107.5017      	1107.474       	1107.4625      	1107.4966      	1107.4832      	
1107.5233      	1107.4958      	1107.4758      	1107.4474      	1107.4763      	1107.4354      	1107.4349      	1107.455       	1107.4563      	1107.5325      	1107.3562      	1107.4888      	1107.4713      	1107.3997      	1107.4895      	1107.3999      	1107.402       	1107.4083      	1107.3865      	1107.4136      	1107.3365      	1107.3854      	1107.3922      	1107.4259      	1107.3713      	1107.4003      	1107.4324      	1107.4084      	1107.4542      	1107.4373      	1107.4231      	1107.352       	1107.5413      	1107.4524      	1107.4875      	1107.4368      	1107.481       	1107.449       	1107.4266      	1107.4099      	1107.4453      	1107.3999      	1107.406       	1107.3657      	1107.3538      	1107.3821      	1107.4031      	1107.4122      	1107.416       	1107.398       	1107.409       	1107.387       	1107.3644      	1107.3871      	1107.3931      	1107.3912      	1107.4155      	1107.375       	1107.3999      	1107.4777      	1107.3777      	1107.367       	1107.3673      	1107.357       	1107.3612      	1107.368       	1107.339       	1107.3707      	1107.3224      	1107.413       	1107.3351      	1107.3192      	1107.3221      	1107.2766      	1107.2427      	1107.3065      	1107.2345      	1107.2988      	1107.1757      	1107.2327      	1107.2903      	1107.2566      	1107.2345      	1107.2196      	1107.2423      	1107.2102      	1107.2076      	1107.2274      	1107.1624      	1107.2109      	1107.2417      	1107.1421      	1107.1929      	1107.1891      	1107.1761      	1107.1896      	1107.157       	1107.1766      	1107.221       	1107.1727      	
1107.0818      	1107.1248      	1107.1626      	1107.0471      	1107.0264      	1107.1603      	1107.0698      	1107.1094      	1106.9927      	1107.0123      	1107.0096      	1106.9927      	1107.0142      	1107.0361      	1106.9767      	1107.0533      	1107.0095      	1107.0042      	1107.0144      	1106.9565      	1106.9895      	1107.0071      	1106.946       	1106.9862      	1106.9868      	1106.9722      	1106.9539      	1106.9697      	1106.9755      	1106.9894      	1106.9797      	1107.022       	1107.0076      	1107.0079      	1106.9368      	1107.0137      	1106.9832      	1106.9883      	1106.9354      	1106.9683      	1106.9839      	1106.9794      	1106.9132      	1106.9531      	1106.9409      	1106.8851      	1107.0356      	1106.9214      	1106.8156      	1106.7578      	1107.0112      	1106.9894      	1106.8848      	1106.9401      	1106.9592      	1107.0067      	1106.9492      	1106.9053      	1106.9109      	1106.8726      	1106.9155      	1106.9602      	1106.9554      	1106.9135      	1106.9315      	1106.8994      	1106.9229      	1106.9299      	1106.8905      	1106.9237      	1106.9104      	1106.88        	1106.8655      	1106.8966      	1106.8899      	1106.8384      	1106.8795      	1106.8829      	1106.873       	1106.8738      	1106.8198      	1106.8241      	1106.7986      	1106.8407      	1106.8025      	1106.7914      	1106.8007      	1106.773       	1106.7932      	1106.8751      	1106.8055      	1106.8788      	1106.8899      	1106.7329      	1106.8318      	1106.766       	1106.8004      	1106.8114      	1106.8153      	1106.8016      	
1106.6545      	1106.5781      	1106.5343      	1106.605       	1106.5472      	1106.5928      	1106.6007      	1106.5562      	1106.5911      	1106.5552      	1106.5525      	1106.5206      	1106.4948      	1106.5686      	1106.5234      	1106.5353      	1106.531       	1106.4951      	1106.5121      	1106.4731      	1106.4601      	1106.5007      	1106.4257      	1106.5015      	1106.4617      	1106.4695      	1106.4674      	1106.4656      	1106.443       	1106.4622      	1106.4989      	1106.51        	1106.4624      	1106.4673      	1106.4915      	1106.4644      	1106.4807      	1106.489       	1106.4357      	1106.4641      	1106.447       	1106.4252      	1106.4537      	1106.4076      	1106.419       	1106.4329      	1106.2983      	1106.5415      	1106.4054      	1106.2263      	1106.4155      	1106.3873      	1106.4094      	1106.4438      	1106.4119      	1106.3884      	1106.3938      	1106.3757      	1106.4087      	1106.4142      	1106.3734      	1106.3627      	1106.4003      	1106.3953      	1106.3586      	1106.37        	1106.3734      	1106.3708      	1106.3448      	1106.3499      	1106.342       	1106.312       	1106.3331      	1106.3145      	1106.3237      	1106.298       	1106.3196      	1106.3187      	1106.2977      	1106.3029      	1106.267       	1106.2874      	1106.2898      	1106.2528      	1106.2712      	1106.2896      	1106.2452      	1106.2401      	1106.2635      	1106.2822      	1106.2668      	1106.2915      	1106.2615      	1106.2556      	1106.2733      	1106.248       	1106.2865      	1106.2991      	1106.218       	1106.2844      	
1106.1877      	1106.2462      	1106.2831      	1106.1425      	1106.1389      	1106.1667      	1106.1116      	1106.2137      	1106.1025      	1106.1658      	1106.1512      	1106.064       	1106.1022      	1106.1567      	1106.1239      	1106.091       	1106.1204      	1106.159       	1106.0902      	1106.1138      	1106.0934      	1106.1345      	1106.1288      	1106.0913      	1106.1349      	1106.1506      	1106.0979      	1106.1176      	1106.0986      	1106.1946      	1106.1057      	1106.1573      	1106.1493      	1106.1144      	1106.1316      	1106.0876      	1106.1288      	1106.1001      	1106.1108      	1106.0868      	1106.122       	1106.1282      	1106.0942      	1106.0314      	1106.0536      	1106.081       	1106.0375      	1106.0747      	1106.08        	1106.0663      	1106.115       	1106.0233      	1106.0751      	1106.1199      	1106.1085      	1106.0646      	1106.1376      	1106.129       	1106.0579      	1106.1555      	1106.095       	1106.1494      	1106.1633      	1106.049       	1106.1471      	1106.1887      	1106.1024      	1106.1125      	1106.0608      	1106.1139      	1106.1052      	1106.0342      	1106.065       	1106.1454      	1106.056       	1106.1086      	1106.0428      	1106.0708      	1106.0905      	1106.0496      	1106.0669      	1106.043       	1106.0939      	1106.0343      	1106.0361      	1106.1317      	1106.0648      	1106.0841      	1106.0842      	1106.0431      	1106.0488      	1106.1151      	1106.0325      	1106.0591      	1105.9973      	1105.9932      	1106.0975      	1106.0142      	1106.0345      	1106.0312      	
1106.1198      	1106.0482      	1106.0537      	1106.0803      	1106.0472      	1106.0969      	1106.0736      	1106.0422      	1106.0929      	1106.1016      	1106.0906      	1106.0891      	1106.0679      	1106.06        	1106.0333      	1106.0874      	1106.0566      	1106.0769      	1106.0255      	1106.0795      	1106.1289      	1106.0616      	1106.0785      	1106.0625      	1106.1075      	1106.0687      	1106.1295      	1106.1345      	1106.0809      	1106.0962      	1106.0857      	1106.1284      	1106.1173      	1106.0988      	1106.091       	1106.0956      	1106.0826      	1106.0413      	1106.1112      	1106.0885      	1106.0553      	1106.1014      	1106.0854      	1106.0398      	1106.0461      	1106.0327      	1106.0906      	1106.0485      	1106.0751      	1106.0966      	1106.0697      	1106.0801      	1106.0724      	1106.0623      	1106.0406      	1106.1254      	1106.0955      	1106.1263      	1106.1082      	1106.0669      	1106.1238      	1106.0891      	1106.0842      	1106.0829      	1106.0754      	1106.143       	1106.1085      	1106.0488      	1106.096       	1106.0292      	1106.0347      	1106.0164      	1106.0281      	1106.0143      	1105.996       	1106.006       	1106.0277      	1105.9824      	1106.0149      	1106.0181      	1105.9982      	1105.8927      	1106.0217      	1105.9846      	1105.9796      	1105.944       	1105.9667      	1105.9891      	1105.9673      	1106.0223      	1106.009       	1106.0206      	1106.0177      	1106.0715      	1106.0005      	1106.0422      	1106.0267      	1106.0808      	1106.0526      	1106.0885      	
1106.2969      	1106.243       	1106.223       	1106.3302      	1106.2397      	1106.3062      	1106.2996      	1106.2866      	1106.3112      	1106.279       	1106.2383      	1106.2839      	1106.2725      	1106.258       	1106.2688      	1106.3367      	1106.2937      	1106.2192      	1106.3254      	1106.3257      	1106.2748      	1106.3197      	1106.1993      	1106.3801      	1106.3517      	1106.298       	1106.2715      	1106.3308      	1106.3138      	1106.3192      	1106.3231      	1106.3225      	1106.3905      	1106.3348      	1106.3296      	1106.3514      	1106.3054      	1106.3933      	1106.2615      	1106.397       	1106.2726      	1106.2925      	1106.3333      	1106.3113      	1106.284       	1106.3014      	1106.3088      	1106.2896      	1106.2903      	1106.3203      	1106.3091      	1106.3257      	1106.2709      	1106.3469      	1106.3468      	1106.2483      	1106.2941      	1106.4076      	1106.3975      	1106.3392      	1106.3922      	1106.3575      	1106.2859      	1106.3383      	1106.3364      	1106.3073      	1106.2716      	1106.3055      	1106.2617      	1106.3452      	1106.2802      	1106.2778      	1106.2893      	1106.2893      	1106.3156      	1106.2593      	1106.2462      	1106.3442      	1106.3198      	1106.2972      	1106.2546      	1106.3931      	1106.2599      	1106.3269      	1106.35        	1106.333       	1106.2751      	1106.2417      	1106.4215      	1106.3583      	1106.3546      	1106.3857      	1106.3912      	1106.3674      	1106.4209      	1106.4089      	1106.3641      	1106.4059      	1106.3293      	1106.4575      	
1106.7268      	1106.6919      	1106.6642      	1106.7084      	1106.662       	1106.6416      	1106.6766      	1106.7063      	1106.6915      	1106.6921      	1106.6653      	1106.7114      	1106.6785      	1106.654       	1106.6964      	1106.7129      	1106.7208      	1106.6733      	1106.6948      	1106.6392      	1106.6958      	1106.6779      	1106.6775      	1106.6799      	1106.6965      	1106.7095      	1106.7244      	1106.6522      	1106.7278      	1106.6896      	1106.7561      	1106.7517      	1106.6948      	1106.7491      	1106.741       	1106.7178      	1106.7362      	1106.6931      	1106.7017      	1106.7712      	1106.728       	1106.7374      	1106.7362      	1106.7062      	1106.746       	1106.6433      	1106.7604      	1106.7664      	1106.7235      	1106.7411      	1106.7477      	1106.7618      	1106.7291      	1106.7794      	1106.7722      	1106.801       	1106.7648      	1106.8182      	1106.8047      	1106.7664      	1106.7931      	1106.7283      	1106.8219      	1106.7823      	1106.7919      	1106.8114      	1106.741       	1106.8245      	1106.8116      	1106.7598      	1106.7911      	1106.7887      	1106.7098      	1106.7911      	1106.8243      	1106.7589      	1106.7554      	1106.7064      	1106.6442      	1106.8752      	1106.8333      	1106.7711      	1106.7874      	1106.8247      	1106.8059      	1106.7491      	1106.7987      	1106.8298      	1106.7815      	1106.8538      	1106.8042      	1106.8325      	1106.8763      	1106.7968      	1106.8376      	1106.8386      	1106.8407      	1106.8458      	1106.8977      	1106.8557      	
1107.0118      	1107.0034      	1107.0012      	1107.0118      	1107.0098      	1107.0342      	1107.019       	1107.0294      	1107.0149      	1107.0468      	1107.0454      	1107.0126      	1107.0165      	1107.036       	1107.01        	1107.0461      	1107.0632      	1107.0535      	1107.0637      	1107.0516      	1107.096       	1107.0592      	1107.0376      	1107.105       	1107.0656      	1107.0847      	1107.0643      	1107.1118      	1107.0602      	1107.1107      	1107.0773      	1107.1381      	1107.0471      	1107.0464      	1107.1089      	1107.0319      	1107.0226      	1107.0378      	1107.086       	1107.0525      	1107.0254      	1107.0714      	1107.1038      	1107.0364      	1107.0493      	1107.0096      	1107.036       	1106.9973      	1107.0314      	1107.0432      	1107.0428      	1107.0636      	1107.0741      	1107.0548      	1107.0812      	1107           	1107.0547      	1107.0109      	1107.0604      	1107.0598      	1107.0333      	1107.0034      	1107.0321      	1107.1003      	1107.0043      	1106.9729      	1107.043       	1106.9636      	1107.0193      	1106.9568      	1106.985       	1107.0492      	1106.9104      	1106.9152      	1107.0764      	1106.7863      	1106.7767      	1106.7802      	1106.5736      	1106.8663      	1107.0603      	1106.9993      	1107.0405      	1107.0155      	1107.0276      	1106.9596      	1106.9961      	1107.0428      	1107.0134      	1107.0454      	1106.9786      	1106.9995      	1107.029       	1107.0731      	1106.9878      	1107.0159      	1107.0321      	1107.0032      	1107.0508      	1107.0594      	
1106.9022      	1106.8595      	1106.8358      	1106.8749      	1106.84        	1106.8016      	1106.9094      	1106.8451      	1106.8602      	1106.8002      	1106.857       	1106.8143      	1106.8113      	1106.814       	1106.8921      	1106.7766      	1106.8468      	1106.8365      	1106.8912      	1106.7026      	1106.9197      	1106.8799      	1106.8632      	1106.8586      	1106.8381      	1106.7975      	1106.8677      	1106.8873      	1106.7722      	1106.8583      	1106.8536      	1106.7722      	1106.8428      	1106.8126      	1106.7821      	1106.8062      	1106.8271      	1106.7661      	1106.8036      	1106.7542      	1106.7788      	1106.802       	1106.7769      	1106.7819      	1106.7843      	1106.7656      	1106.7042      	1106.7905      	1106.7488      	1106.7538      	1106.7222      	1106.7854      	1106.754       	1106.7904      	1106.7303      	1106.8298      	1106.7639      	1106.789       	1106.7362      	1106.8042      	1106.7426      	1106.7644      	1106.6929      	1106.6942      	1106.7408      	1106.7174      	1106.6965      	1106.6953      	1106.7788      	1106.7325      	1106.8177      	1106.7958      	1106.7189      	1106.813       	1106.785       	1106.7742      	1106.6693      	1106.5684      	1106.3408      	1106.2845      	1106.7112      	1106.7242      	1106.6915      	1106.7035      	1106.685       	1106.7394      	1106.6602      	1106.692       	1106.7568      	1106.6361      	1106.8094      	1106.6871      	1106.7424      	1106.7914      	1106.7662      	1106.6329      	1106.6818      	1106.8196      	1106.757       	1106.6915      	
1106.5859      	1106.5673      	1106.547       	1106.5079      	1106.519       	1106.7124      	1106.5636      	1106.5743      	1106.5679      	1106.5782      	1106.5604      	1106.6007      	1106.5431      	1106.5155      	1106.5365      	1106.5776      	1106.6024      	1106.5789      	1106.6315      	1106.6366      	1106.614       	1106.5507      	1106.6024      	1106.6052      	1106.5596      	1106.6321      	1106.6322      	1106.591       	1106.5461      	1106.5981      	1106.586       	1106.5508      	1106.5516      	1106.5884      	1106.5654      	1106.5581      	1106.5831      	1106.5598      	1106.4856      	1106.5408      	1106.5483      	1106.5057      	1106.5243      	1106.4883      	1106.5139      	1106.6066      	1106.4708      	1106.531       	1106.4373      	1106.5896      	1106.5214      	1106.4784      	1106.5989      	1106.3928      	1106.5779      	1106.4972      	1106.5935      	1106.4669      	1106.4354      	1106.3254      	1106.6599      	1106.4698      	1106.3958      	1106.4979      	1106.3635      	1106.5862      	1106.6163      	1106.5664      	1106.5349      	1106.4312      	1106.5151      	1106.5253      	1106.5203      	1106.3944      	1106.5323      	1106.4677      	1106.4226      	1106.311       	1106.1873      	1105.7883      	1106.4904      	1106.4934      	1106.4185      	1106.459       	1106.4253      	1106.3894      	1106.4637      	1106.3933      	1106.5188      	1106.4813      	1106.4276      	1106.4186      	1106.5193      	1106.453       	1106.4835      	1106.4326      	1106.4908      	1106.5022      	1106.4954      	1106.4539      	
1106.3391      	1106.2218      	1106.336       	1106.423       	1106.2775      	1106.268       	1106.3259      	1106.2723      	1106.3309      	1106.3131      	1106.395       	1106.3368      	1106.3367      	1106.3557      	1106.3295      	1106.3333      	1106.3214      	1106.3264      	1106.3362      	1106.3489      	1106.3672      	1106.3052      	1106.3956      	1106.4141      	1106.3673      	1106.3914      	1106.4286      	1106.3248      	1106.4031      	1106.3989      	1106.3169      	1106.3934      	1106.3699      	1106.4025      	1106.2855      	1106.355       	1106.387       	1106.3462      	1106.3065      	1106.385       	1106.4054      	1106.2809      	1106.3752      	1106.3116      	1106.3722      	1106.322       	1106.352       	1106.3347      	1106.3699      	1106.3325      	1106.2883      	1106.3936      	1106.36        	1106.2966      	1106.3375      	1106.3894      	1106.3451      	1106.2737      	1106.454       	1106.3044      	1106.5378      	1106.512       	1106.3265      	1106.4021      	1106.386       	1106.3701      	1106.2897      	1106.3295      	1106.2812      	1106.2948      	1106.326       	1106.3047      	1106.2019      	1106.3619      	1106.3489      	1106.2977      	1106.3124      	1106.0496      	1106.1659      	1105.946       	1105.8933      	1106.539       	1106.3173      	1106.3536      	1106.2867      	1106.2826      	1106.3351      	1106.3124      	1106.3602      	1106.307       	1106.3699      	1106.2911      	1106.3167      	1106.295       	1106.3998      	1106.308       	1106.2737      	1106.3945      	1106.3153      	1106.3508      	
1106.2372      	1106.1825      	1106.1177      	1106.1011      	1106.2245      	1106.2325      	1106.192       	1106.2936      	1106.1876      	1106.1809      	1106.2625      	1106.1571      	1106.301       	1106.2126      	1106.1779      	1106.1641      	1106.1642      	1106.2059      	1106.2915      	1106.3376      	1106.2288      	1106.2413      	1106.3134      	1106.2401      	1106.2621      	1106.2001      	1106.2771      	1106.1948      	1106.3231      	1106.1892      	1106.2649      	1106.2174      	1106.2083      	1106.1636      	1106.3065      	1106.197       	1106.1366      	1106.3569      	1106.2194      	1106.0168      	1106.342       	1106.2612      	1106.1808      	1106.2622      	1106.1941      	1106.2869      	1106.2434      	1106.1884      	1106.2307      	1106.2373      	1106.3391      	1106.1317      	1106.1884      	1106.2944      	1106.223       	1106.4447      	1106.3823      	1106.4946      	1106.3594      	1106.2219      	1106.3464      	1106.2899      	1106.1381      	1106.321       	1106.3218      	1106.1942      	1106.3424      	1106.2749      	1106.2941      	1106.2544      	1106.2196      	1106.2739      	1106.2869      	1106.2404      	1106.3379      	1106.2584      	1106.2433      	1106.128       	1106.1088      	1105.7731      	1105.7781      	1106.2954      	1106.19        	1106.281       	1106.214       	1106.2627      	1106.1622      	1106.3269      	1106.3364      	1106.3448      	1106.2771      	1106.309       	1106.2483      	1106.2195      	1106.3163      	1106.1578      	1106.3062      	1106.2983      	1106.3567      	1106.2415      	
1106.3215      	1106.3135      	1106.2533      	1106.2894      	1106.3085      	1106.2937      	1106.3329      	1106.3218      	1106.3303      	1106.3265      	1106.3329      	1106.345       	1106.2098      	1106.4102      	1106.3218      	1106.3319      	1106.3739      	1106.3927      	1106.3286      	1106.3912      	1106.3384      	1106.3318      	1106.3497      	1106.3782      	1106.3927      	1106.3401      	1106.3977      	1106.4255      	1106.411       	1106.4075      	1106.3894      	1106.4061      	1106.3427      	1106.4182      	1106.384       	1106.4363      	1106.3857      	1106.2664      	1106.4437      	1106.4326      	1106.2584      	1106.4954      	1106.3048      	1106.397       	1106.3464      	1106.4497      	1106.44        	1106.3773      	1106.4078      	1106.4622      	1106.3503      	1106.3456      	1106.5635      	1106.62        	1106.5479      	1106.455       	1106.4669      	1106.4825      	1106.4777      	1106.4656      	1106.3999      	1106.4113      	1106.4006      	1106.3849      	1106.3894      	1106.4579      	1106.407       	1106.3617      	1106.3915      	1106.3783      	1106.3873      	1106.3894      	1106.3956      	1106.375       	1106.3911      	1106.3989      	1106.3804      	1106.383       	1106.1401      	1106.1721      	1105.8689      	1106.3923      	1106.3455      	1106.2742      	1106.5024      	1106.3815      	1106.3855      	1106.4409      	1106.394       	1106.3655      	1106.4962      	1106.4723      	1106.4768      	1106.4177      	1106.4503      	1106.3998      	1106.333       	1106.6537      	1106.5575      	1106.5049      	
1106.5297      	1106.5546      	1106.481       	1106.4348      	1106.5043      	1106.5364      	1106.496       	1106.4705      	1106.4657      	1106.4767      	1106.4794      	1106.5463      	1106.5728      	1106.5531      	1106.5623      	1106.551       	1106.5046      	1106.5365      	1106.6187      	1106.5931      	1106.5511      	1106.6364      	1106.5585      	1106.5431      	1106.4789      	1106.4767      	1106.8179      	1106.7035      	1106.6559      	1106.6326      	1106.6704      	1106.6276      	1106.6804      	1106.5344      	1106.6821      	1106.6134      	1106.588       	1106.5931      	1106.6738      	1106.6444      	1106.6495      	1106.5787      	1106.6321      	1106.6233      	1106.57        	1106.7557      	1106.6011      	1106.7897      	1106.7904      	1106.6671      	1106.7827      	1106.714       	1106.7695      	1106.6799      	1106.7249      	1106.7009      	1106.4818      	1106.812       	1106.6914      	1106.6699      	1106.6729      	1106.6407      	1106.7001      	1106.656       	1106.6805      	1106.6156      	1106.671       	1106.687       	1106.5688      	1106.7089      	1106.6443      	1106.6534      	1106.6161      	1106.6296      	1106.6769      	1106.8026      	1106.5419      	1106.5526      	1106.7688      	1106.2672      	1106.4542      	1106.162       	1106.8611      	1106.6836      	1106.6495      	1106.6185      	1106.7076      	1106.6659      	1106.6218      	1106.6638      	1106.8108      	1106.7013      	1106.7391      	1106.6803      	1106.7898      	1106.4626      	1106.9622      	1106.7046      	1106.825       	1106.7511      	
1106.7648      	1106.7334      	1106.6866      	1106.7358      	1106.716       	1106.8429      	1106.7922      	1106.7759      	1106.7683      	1106.793       	1106.81        	1106.8326      	1106.8431      	1106.8324      	1106.8046      	1106.8657      	1106.8658      	1106.8613      	1106.8121      	1106.8182      	1106.9154      	1106.825       	1106.8728      	1106.8412      	1106.8289      	1106.8387      	1106.9288      	1106.8563      	1106.7974      	1106.8221      	1106.7737      	1106.7448      	1106.7975      	1106.8068      	1106.8644      	1106.7749      	1106.7517      	1106.9136      	1106.7659      	1106.7532      	1106.8684      	1106.8425      	1106.8428      	1106.8026      	1106.8485      	1107.0244      	1106.9664      	1107.0018      	1106.925       	1106.8556      	1106.9485      	1106.8679      	1106.8477      	1106.9639      	1106.8716      	1106.8319      	1106.9028      	1106.8289      	1106.7589      	1106.8214      	1106.7042      	1106.8657      	1106.8197      	1106.8245      	1106.786       	1106.7655      	1106.7399      	1106.8074      	1106.7434      	1106.8201      	1106.7269      	1106.7361      	1106.7751      	1106.7397      	1106.7161      	1106.8267      	1106.6771      	1106.9067      	1106.4971      	1106.817       	1106.2214      	1106.2662      	1106.9045      	1106.8357      	1106.8291      	1106.8271      	1106.7606      	1106.9115      	1106.856       	1106.7739      	1106.8717      	1106.7968      	1106.7637      	1106.8679      	1106.9797      	1106.8728      	1106.8374      	1106.9406      	1106.8999      	1106.7788      	
1106.8062      	1106.802       	1106.7708      	1106.8182      	1106.8591      	1106.8914      	1106.8182      	1106.7952      	1106.8477      	1106.8843      	1106.8684      	1106.87        	1106.8777      	1106.853       	1106.8788      	1106.9031      	1106.873       	1106.9281      	1106.8855      	1106.887       	1106.9285      	1106.8499      	1106.9414      	1106.9835      	1106.9285      	1106.9441      	1106.8638      	1106.9541      	1106.8789      	1106.8716      	1106.9178      	1106.8395      	1106.767       	1106.9297      	1106.8768      	1106.9712      	1106.8329      	1106.9105      	1106.9349      	1106.9099      	1106.9397      	1106.927       	1107.3048      	1107.1804      	1107.1124      	1107.0162      	1107.0149      	1106.9446      	1107.0466      	1106.905       	1107.0923      	1106.9366      	1106.9751      	1106.9236      	1106.9303      	1106.9731      	1106.8932      	1106.969       	1106.8639      	1106.9623      	1106.9543      	1106.8751      	1106.8895      	1106.9923      	1106.8563      	1107.0051      	1106.8558      	1106.9265      	1106.8628      	1106.821       	1107.011       	1106.889       	1106.8527      	1106.967       	1106.9003      	1106.9587      	1106.9432      	1106.9542      	1106.888       	1106.7882      	1106.4116      	1106.586       	1106.9888      	1107.0122      	1107.022       	1106.9905      	1107.01        	1106.9725      	1107.0035      	1106.948       	1107.0826      	1107.0181      	1107.034       	1107.0736      	1107.0586      	1107.0267      	1106.9255      	1107.1295      	1106.9581      	1107.163       	
1107.1345      	1107.1444      	1107.1283      	1107.163       	1107.1857      	1107.1986      	1107.1831      	1107.1688      	1107.1746      	1107.2264      	1107.1376      	1107.2417      	1107.1759      	1107.2024      	1107.2507      	1107.2711      	1107.2682      	1107.2207      	1107.2136      	1107.129       	1107.3833      	1107.2277      	1107.1855      	1107.2311      	1107.3517      	1107.2659      	1107.2404      	1107.272       	1107.2952      	1107.3019      	1107.1417      	1107.2504      	1107.2654      	1107.2976      	1107.2423      	1107.2806      	1107.2441      	1107.2576      	1107.2838      	1107.2618      	1107.3276      	1107.5525      	1107.5277      	1107.4739      	1107.4114      	1107.3553      	1107.2778      	1107.2661      	1107.2727      	1107.2755      	1107.3427      	1107.3452      	1107.2479      	1107.2332      	1107.3914      	1107.2075      	1107.2402      	1107.2078      	1107.3958      	1107.1669      	1107.1575      	1107.3783      	1107.2815      	1107.2915      	1107.2603      	1107.2157      	1107.2423      	1107.3005      	1107.2029      	1107.3811      	1107.1652      	1107.3046      	1107.1769      	1107.1199      	1107.4093      	1107.2802      	1107.2793      	1107.3385      	1107.2014      	1107.1501      	1106.9572      	1106.8387      	1107.2167      	1107.3052      	1107.3085      	1107.2808      	1107.2659      	1107.2231      	1107.3501      	1107.401       	1107.3513      	1107.37        	1107.3695      	1107.3472      	1107.3065      	1107.4128      	1107.352       	1107.3811      	1107.3247      	1107.3568      	
1107.2347      	1107.1775      	1107.1628      	1107.1395      	1107.2688      	1107.2102      	1107.2416      	1107.2294      	1107.2059      	1107.3235      	1107.255       	1107.2677      	1107.3313      	1107.2524      	1107.1259      	1107.4481      	1107.1884      	1107.421       	1107.3372      	1107.3219      	1107.2946      	1107.3749      	1107.1649      	1107.3966      	1107.3098      	1107.3048      	1107.2589      	1107.3767      	1107.3142      	1107.2356      	1107.3423      	1107.196       	1107.3518      	1107.235       	1107.3325      	1107.2395      	1107.2136      	1107.3629      	1107.2975      	1107.2683      	1107.2861      	1107.667       	1107.5436      	1107.4705      	1107.4427      	1107.413       	1107.3947      	1107.2651      	1107.1962      	1107.401       	1107.3685      	1107.3156      	1107.2805      	1107.2953      	1107.3977      	1107.3599      	1107.32        	1107.3104      	1107.0975      	1107.507       	1107.3348      	1107.355       	1107.3025      	1107.3876      	1107.3025      	1107.2097      	1107.3718      	1107.3391      	1107.3647      	1107.2578      	1107.3254      	1107.4093      	1107.3966      	1107.3733      	1107.3677      	1107.3708      	1107.2537      	1107.5109      	1107.4369      	1107.3445      	1107.1903      	1106.701       	1107.5269      	1107.4517      	1107.3595      	1107.4347      	1107.3251      	1107.4572      	1107.5005      	1107.398       	1107.3932      	1107.4856      	1107.3728      	1107.486       	1107.381       	1107.4529      	1107.4327      	1107.4464      	1107.3893      	1107.4905      	
1107.4396      	1107.4081      	1107.3635      	1107.4011      	1107.4565      	1107.4736      	1107.4253      	1107.5024      	1107.4827      	1107.434       	1107.5269      	1107.5038      	1107.5155      	1107.4589      	1107.4702      	1107.3909      	1107.5481      	1107.4514      	1107.5701      	1107.496       	1107.4722      	1107.4993      	1107.6034      	1107.3674      	1107.4713      	1107.4481      	1107.4579      	1107.4601      	1107.4545      	1107.4575      	1107.4823      	1107.4174      	1107.4087      	1107.4634      	1107.4253      	1107.4641      	1107.4614      	1107.4637      	1107.5145      	1107.4648      	1107.4402      	1107.6003      	1107.7834      	1107.6477      	1107.6248      	1107.6184      	1107.5458      	1107.4753      	1107.6271      	1107.5605      	1107.4924      	1107.5997      	1107.509       	1107.5532      	1107.4597      	1107.4512      	1107.5021      	1107.5492      	1107.4369      	1107.355       	1107.3054      	1107.6724      	1107.4747      	1107.4865      	1107.4221      	1107.5076      	1107.4397      	1107.4817      	1107.5298      	1107.564       	1107.4714      	1107.4275      	1107.6067      	1107.4598      	1107.3851      	1107.6716      	1107.4979      	1107.5513      	1107.5378      	1107.519       	1107.165       	1107.1427      	1107.238       	1107.7228      	1107.5415      	1107.4481      	1107.7576      	1107.5731      	1107.5835      	1107.5542      	1107.6566      	1107.4934      	1107.6962      	1107.5956      	1107.6183      	1107.5438      	1107.623       	1107.6018      	1107.6687      	1107.5724      	
1107.6229      	1107.6028      	1107.4685      	1107.6105      	1107.6726      	1107.6179      	1107.6256      	1107.6703      	1107.6274      	1107.6482      	1107.6309      	1107.7123      	1107.6655      	1107.6677      	1107.6333      	1107.7042      	1107.6438      	1107.744       	1107.6339      	1107.7618      	1107.7014      	1107.686       	1107.741       	1107.6718      	1107.7142      	1107.6932      	1107.6837      	1107.6672      	1107.6663      	1107.6642      	1107.7252      	1107.6313      	1107.5798      	1107.6271      	1107.7421      	1107.6493      	1107.6968      	1107.7001      	1107.6044      	1107.7501      	1107.6495      	1107.7616      	1108.0676      	1107.8907      	1107.8464      	1107.8243      	1107.7603      	1107.7006      	1107.6968      	1107.8094      	1107.7178      	1107.7185      	1107.7546      	1107.7415      	1107.6814      	1107.7441      	1107.7043      	1107.5476      	1107.7573      	1107.7573      	1107.6622      	1107.6282      	1107.702       	1107.7493      	1107.7346      	1107.6597      	1107.6902      	1107.7897      	1107.7285      	1107.63        	1107.657       	1107.8014      	1107.7858      	1107.7622      	1107.7589      	1107.7163      	1107.7704      	1107.7388      	1107.7684      	1107.7131      	1107.6423      	1107.3273      	1107.4854      	1107.6464      	1107.8346      	1107.8185      	1107.7756      	1107.8289      	1107.816       	1107.7698      	1107.8557      	1107.7544      	1107.8806      	1107.8386      	1107.8005      	1107.7518      	1107.827       	1107.8396      	1107.8276      	1107.8016      	
1107.7769      	1107.734       	1107.7354      	1107.7687      	1107.7831      	1107.7737      	1107.7767      	1107.8345      	1107.8236      	1107.8259      	1107.8246      	1107.7883      	1107.778       	1107.7468      	1107.742       	1107.7439      	1107.7352      	1107.7668      	1107.8136      	1107.7354      	1107.7504      	1107.8003      	1107.8181      	1107.7421      	1107.7672      	1107.7637      	1107.6465      	1107.7638      	1107.759       	1107.7256      	1107.7026      	1107.6749      	1107.7216      	1107.6965      	1107.616       	1107.7529      	1107.7715      	1107.6912      	1107.731       	1107.6882      	1107.7662      	1107.7213      	1108.0923      	1107.8954      	1107.9066      	1107.8582      	1107.837       	1107.7092      	1107.8005      	1107.7482      	1107.7804      	1107.7435      	1107.7595      	1107.7557      	1107.7081      	1107.7013      	1107.7361      	1107.6946      	1107.5878      	1107.7318      	1107.6783      	1107.7778      	1107.6353      	1107.6866      	1107.812       	1107.7081      	1107.6598      	1107.677       	1107.6614      	1107.713       	1107.3857      	1107.8966      	1107.8049      	1107.6665      	1107.6407      	1107.844       	1107.8066      	1107.7959      	1107.7493      	1107.731       	1107.6532      	1107.4803      	1107.271       	1107.6135      	1107.788       	1107.7039      	1107.5703      	1107.9539      	1107.6873      	1107.7593      	1107.685       	1107.9031      	1107.7472      	1107.758       	1107.7217      	1107.7592      	1107.741       	1107.7776      	1107.6893      	1107.7054      	
