# www.neaspec.com
# Scan:	 	AFM
# Project:	 	20251007_PS
# Description:	 	
# Date:	 	10/07/2025 13:24:33
# Scanner Center Position (X, Y):	[µm]	49.99	50.01	 
# Rotation:	[°]	0	 	 
# Scan Area (X, Y, Z):	[µm]	5.000	5.000	0.000
# Pixel Area (X, Y, Z):	[px]	100	100	1
# Averaging:	 	1	 	 
# Integration time:	[ms]	5	 	 
# Laser Source:	 	4.5-15 µm nano-FTIR laser
# Detector:	 	R
# Target Wavelength:	[µm]	7.502	 	 
# Demodulation Mode:	 	Fourier
# Tip Frequency:	[Hz]	241,340.500	 	 
# Tip Amplitude:	[mV]	45.700	 	 
# Tapping Amplitude:	[nm]	76.314	 	 
# Modulation Frequency:	[Hz]	0.000	 	 
# Modulation Amplitude:	[mV]	0.000	 	 
# Modulation Offset:	[mV]	0.000	 	 
# Setpoint:	[%]	79.75	 	 
# Regulator (P, I, D):	 	4.206850	8.625812	1.000000
# Tip Potential:	[mV]	0.000	 	 
# M1A Scaling:	[nm/V]	0.426	 	 
# M1A Cantilever Factor:	 	1,000	 	 
# Q-Factor:	 	487.4	 	 
# Version:	 	2.1.11536.0
76.49073       	76.36672       	76.272514      	76.4753        	76.131195      	76.38114       	76.11536       	77.07593       	82.35168       	77.07706       	76.20741       	76.26444       	76.37058       	76.42113       	76.37063       	76.30448       	76.494934      	76.28568       	76.569664      	76.28156       	76.4741        	76.32023       	76.372116      	76.58704       	76.202675      	76.48309       	76.421684      	76.328445      	76.41271       	76.34194       	76.40501       	76.29988       	76.27416       	76.60052       	76.23598       	76.41822       	76.47774       	76.47471       	76.26266       	75.78832       	76.367165      	75.783195      	76.14874       	76.39485       	76.45898       	76.577705      	75.82051       	76.46594       	76.97935       	76.25728       	76.39143       	76.70099       	76.59587       	75.83138       	73.886185      	73.63845       	74.10995       	76.352066      	76.32525       	76.19978       	76.428635      	76.41831       	76.45227       	76.46479       	76.23489       	76.322624      	76.35035       	76.385         	76.252         	76.49308       	76.384865      	76.30341       	76.72184       	76.26276       	76.369194      	76.49178       	76.361275      	76.51626       	76.32044       	76.29127       	76.56738       	76.37877       	76.27082       	76.47532       	76.31867       	76.44419       	76.10575       	76.56548       	76.28906       	76.25091       	76.38238       	76.2986        	76.371376      	76.41125       	76.27679       	76.68804       	76.296684      	76.33572       	76.66273       	76.76598       	
76.18398       	76.29229       	76.291664      	76.47601       	76.373215      	76.273735      	75.99445       	75.95847       	82.74546       	78.07239       	76.19723       	76.22241       	76.53077       	76.51817       	76.27061       	76.37381       	76.28949       	76.37794       	76.45435       	76.52579       	76.35781       	76.14596       	76.47888       	76.36083       	76.485886      	76.27583       	76.34807       	76.55372       	76.2729        	76.40577       	76.351166      	76.31005       	76.40098       	76.29481       	76.247536      	76.43376       	76.50188       	76.40066       	76.388054      	76.3994        	75.8259        	76.251175      	76.176674      	76.87988       	76.1765        	76.809875      	77.14115       	75.21699       	76.581924      	76.204094      	76.51856       	75.62549       	76.51806       	76.30057       	74.74264       	73.52681       	73.067726      	76.348236      	76.32246       	76.463295      	76.423         	76.36633       	76.25779       	76.405876      	76.28698       	76.35939       	76.42682       	76.26964       	76.416916      	76.41475       	76.42647       	76.65042       	76.28663       	76.41168       	76.5177        	76.15763       	76.32544       	76.417984      	76.67683       	76.24501       	76.39545       	76.14432       	76.54317       	76.547165      	76.35041       	76.47106       	76.306175      	76.37384       	76.187035      	76.38427       	76.46522       	76.19287       	76.47318       	76.39486       	76.247116      	76.39965       	76.35936       	76.45687       	76.415146      	76.60769       	
76.300415      	76.29457       	76.43063       	76.25991       	76.3731        	76.36333       	75.98569       	75.757065      	82.43243       	78.37195       	76.24257       	76.18179       	76.45814       	76.4534        	76.44728       	76.44664       	76.421715      	76.255104      	76.51677       	76.30285       	76.38175       	76.28161       	76.48878       	76.48558       	76.18951       	76.49225       	76.307625      	76.283676      	76.338745      	76.69105       	76.209724      	76.5111        	76.33314       	76.30147       	76.42105       	76.31299       	76.46238       	76.375046      	76.44497       	76.354744      	76.5676        	76.060036      	76.32105       	75.94849       	76.51634       	75.90705       	76.47364       	76.00028       	75.676735      	76.87637       	76.64461       	75.52545       	75.73049       	75.702255      	75.087944      	74.06082       	75.55065       	76.574135      	76.162415      	76.374725      	76.365326      	76.59176       	76.27229       	76.480286      	76.272026      	76.50504       	76.328         	76.37595       	76.20266       	76.44626       	76.50701       	76.509964      	76.48928       	76.416725      	76.37849       	76.38435       	76.22342       	76.40521       	76.656555      	76.297035      	76.02638       	76.718834      	76.29326       	76.30255       	76.47598       	76.6249        	76.21793       	76.47813       	76.330505      	76.24169       	76.25572       	76.27443       	76.362144      	76.501205      	76.46441       	76.286934      	76.37688       	76.526375      	76.38098       	76.3387        	
76.28509       	76.50633       	76.1944        	76.7918        	76.05745       	76.201195      	76.49402       	75.285255      	80.117455      	80.44295       	76.34989       	76.37799       	76.1729        	76.52633       	76.24935       	76.413055      	76.43477       	76.26221       	76.54385       	76.29836       	76.370575      	76.39482       	76.34531       	76.56392       	76.32672       	76.43554       	76.28821       	76.52129       	76.3797        	76.2412        	76.389435      	76.4738        	76.45295       	76.37994       	76.35314       	76.52683       	76.58153       	76.4523        	76.293365      	76.4857        	77.10565       	76.89632       	72.76489       	76.21237       	76.46681       	76.15324       	76.03737       	76.26879       	76.26579       	76.50763       	74.541916      	76.89663       	76.52988       	75.61172       	75.37411       	74.72593       	76.308495      	76.36976       	76.29743       	76.37132       	76.335815      	76.2395        	76.46777       	76.35868       	76.40627       	76.44477       	76.4974        	76.23099       	76.31861       	76.30015       	76.433815      	76.25729       	76.81385       	76.20542       	76.512985      	76.31033       	76.34177       	76.45199       	76.32004       	76.45312       	76.75524       	76.16589       	76.6348        	76.110886      	76.38168       	76.44725       	76.32011       	76.509186      	76.08267       	76.453354      	76.26945       	76.37782       	76.62093       	76.2069        	76.171104      	76.37831       	76.26641       	76.41721       	76.50353       	76.359276      	
76.309845      	76.094246      	76.62428       	76.32808       	76.1382        	76.38952       	76.36325       	75.54773       	77.171295      	82.51846       	76.963         	76.35566       	76.45513       	76.382774      	76.41796       	76.29136       	76.43164       	76.4586        	76.23747       	76.46265       	76.270226      	76.43964       	76.580765      	76.11495       	76.505554      	76.42305       	76.40843       	76.45448       	76.29715       	76.51321       	76.35916       	76.32673       	76.45342       	76.354744      	76.29073       	76.36922       	76.392914      	76.69393       	76.223915      	76.07228       	74.92393       	76.111626      	75.94473       	74.436905      	76.46978       	75.53186       	74.70138       	76.48609       	76.8035        	76.36551       	76.20043       	74.82736       	75.55038       	76.350235      	76.45041       	76.483025      	76.37451       	76.23459       	76.48487       	76.35608       	76.23705       	76.47153       	76.399         	76.36995       	76.32413       	76.228         	76.43005       	76.32611       	76.54215       	76.342155      	76.397156      	76.58196       	76.579025      	76.26303       	76.32136       	76.42227       	76.42407       	76.281334      	76.46175       	76.31929       	76.55223       	76.27629       	76.20669       	76.40507       	76.49942       	76.51109       	76.24005       	76.17855       	76.42335       	76.47214       	76.49796       	76.103226      	76.37449       	76.41224       	76.590164      	76.14393       	76.38768       	76.42072       	76.355644      	76.41414       	
76.48953       	76.316635      	76.3817        	76.61947       	76.264336      	76.1246        	76.46803       	76.10799       	75.84956       	82.57748       	78.1714        	76.26136       	76.045395      	76.73089       	76.31038       	76.67738       	76.18804       	76.27439       	76.50445       	76.36431       	76.16071       	76.35828       	76.438644      	76.44923       	76.36153       	76.370384      	76.414764      	76.52712       	76.2141        	76.53751       	76.27907       	76.372856      	76.51781       	76.269196      	76.34135       	76.31343       	75.26783       	75.92256       	74.780594      	77.78892       	73.08706       	75.07496       	75.27324       	75.849075      	76.69589       	76.78465       	74.806076      	74.99538       	76.768654      	76.118965      	75.9842        	76.307816      	76.35642       	76.54072       	76.113594      	76.514275      	76.41595       	76.2223        	76.54747       	76.30936       	76.38872       	76.26162       	76.43108       	76.36878       	76.525764      	76.35234       	76.34611       	76.169136      	76.54362       	76.37343       	76.40011       	76.426865      	76.34786       	76.75348       	76.30219       	76.21283       	76.695335      	76.12058       	76.46288       	76.527504      	76.24731       	76.36295       	76.537445      	76.05531       	76.50678       	76.73095       	75.87033       	76.550995      	76.438545      	76.135704      	76.42862       	76.319786      	76.434975      	76.44951       	76.32761       	76.29445       	76.23543       	76.259415      	76.395226      	76.22519       	
76.218544      	76.54843       	76.28267       	76.44715       	76.364876      	76.387886      	76.26221       	76.216415      	75.23146       	80.641304      	79.96798       	76.25983       	76.255775      	76.44145       	76.51552       	76.12329       	76.32053       	76.49074       	76.35819       	76.33984       	76.52439       	76.21069       	76.36296       	76.53474       	76.3237        	76.586845      	76.27867       	76.387634      	76.40578       	76.452866      	75.84019       	76.15465       	75.56221       	75.5191        	74.13706       	76.05745       	74.30848       	75.27342       	75.14377       	76.33051       	75.32216       	75.08322       	76.01749       	75.8458        	76.23317       	76.26744       	76.38673       	76.23468       	76.530014      	76.35711       	76.32045       	76.27278       	76.31385       	76.36643       	76.36616       	76.379105      	76.519615      	76.17452       	76.34052       	76.41237       	76.48623       	76.32518       	76.25584       	76.49662       	76.50984       	76.21355       	76.141846      	76.305374      	76.46138       	76.34993       	76.455345      	76.11402       	76.40043       	76.48919       	76.45067       	76.47871       	76.31818       	76.48621       	76.415924      	76.32367       	76.71357       	76.18952       	76.228325      	76.32388       	76.485954      	76.4496        	76.44086       	76.27582       	76.309845      	76.435455      	76.34217       	76.33225       	76.336044      	76.28804       	76.54752       	76.34103       	76.17864       	76.369545      	76.65011       	76.39112       	
76.391975      	76.462296      	76.31551       	76.47522       	76.304855      	76.42393       	76.23689       	76.36619       	75.910934      	77.81601       	81.36727       	76.9986        	76.22313       	76.36253       	76.4083        	76.46234       	76.29014       	76.445076      	76.31825       	76.52977       	76.335434      	76.39359       	76.455894      	76.33931       	76.206604      	76.47507       	75.84264       	75.97277       	76.590034      	75.08838       	74.46424       	75.65217       	75.31886       	77.31763       	75.30911       	76.25373       	75.698784      	74.22273       	75.655785      	76.47357       	76.24928       	76.411255      	76.26481       	76.38946       	76.13495       	76.2957        	76.39355       	76.44992       	76.38533       	76.3109        	76.28429       	76.46283       	76.471535      	76.38334       	76.267845      	76.33839       	76.52099       	76.20743       	76.297516      	76.43948       	76.338         	76.33988       	76.43875       	76.371315      	76.29925       	76.41104       	76.31334       	76.431366      	76.42579       	76.28953       	76.406815      	76.40412       	76.30384       	76.77787       	76.18871       	76.372345      	76.360855      	76.52355       	76.43742       	76.36195       	76.27894       	76.42819       	76.381905      	76.359055      	76.54183       	76.60356       	76.03773       	76.48507       	76.17309       	76.38901       	76.43696       	76.3179        	76.32644       	76.58865       	76.2134        	76.41045       	76.23641       	76.46733       	76.5749        	76.45916       	
76.48873       	76.40376       	76.12879       	76.44482       	76.31449       	76.46452       	76.21132       	76.31348       	76.015015      	77.437386      	81.92386       	77.24857       	76.2571        	76.29647       	76.55629       	76.28727       	76.39551       	76.44915       	76.42583       	76.43196       	76.27804       	76.29633       	76.38418       	75.67836       	75.45363       	75.75672       	72.33253       	76.47249       	74.81577       	75.54437       	75.59981       	76.97085       	76.42771       	75.54714       	75.171524      	76.08572       	76.5347        	76.36962       	76.27063       	76.70624       	76.363914      	76.08627       	76.58636       	76.12395       	75.998116      	76.39361       	76.57951       	76.29571       	76.3575        	76.30184       	76.47651       	76.34513       	76.13676       	76.751274      	76.1383        	76.3084        	76.44123       	76.477745      	76.27156       	76.492256      	76.190285      	76.5776        	76.26555       	76.33992       	76.42809       	76.392654      	76.43408       	76.20855       	76.415825      	76.26361       	76.48039       	76.46991       	76.42342       	76.485245      	76.37752       	76.41453       	76.28351       	76.43576       	76.38054       	76.45211       	76.576035      	76.29144       	76.54326       	76.185486      	76.44527       	76.42385       	76.21696       	76.49182       	76.42334       	76.312515      	76.30909       	76.39571       	76.33519       	76.21502       	76.56907       	76.30469       	76.37014       	76.38216       	76.7083        	76.54896       	
76.39972       	76.47376       	76.29514       	76.48216       	76.11467       	76.40844       	76.29924       	76.288185      	75.94749       	75.8539        	77.71653       	77.35757       	76.22573       	76.41561       	76.26706       	76.520424      	76.329636      	76.32631       	76.05245       	78.642494      	77.53129       	76.837074      	76.81743       	76.03779       	76.179115      	75.78937       	75.220566      	76.80612       	75.398834      	73.97936       	75.90649       	76.41991       	76.359726      	76.36709       	76.41547       	76.27961       	76.175896      	76.31179       	76.61877       	76.27196       	76.34344       	76.43613       	76.31525       	76.29692       	76.22877       	76.53719       	76.55865       	76.23922       	76.40142       	76.41307       	75.97422       	76.74016       	76.46533       	76.41653       	76.37537       	76.181526      	76.06802       	76.48589       	76.2272        	76.34978       	76.17603       	76.62011       	76.19814       	76.66623       	76.29233       	76.003654      	76.61375       	76.574234      	76.25358       	76.31142       	76.44088       	76.199005      	76.43486       	76.46769       	76.349014      	76.30464       	76.39781       	76.39098       	76.37822       	76.48345       	76.49796       	76.444466      	76.37079       	76.57128       	76.23739       	76.44898       	76.32468       	76.56946       	76.401276      	76.1743        	76.441536      	76.4102        	76.17512       	76.28239       	76.4832        	76.72766       	76.07793       	76.432304      	76.271645      	76.39974       	
76.55603       	76.697945      	76.255165      	76.48027       	76.334785      	76.52665       	76.33521       	76.2719        	75.89419       	76.1293        	75.850426      	78.54534       	76.70038       	76.06737       	75.93819       	75.95055       	75.357864      	75.2487        	77.035194      	78.37659       	77.29824       	76.42487       	75.58615       	77.39163       	76.095894      	76.18279       	75.68462       	74.46941       	76.473404      	76.12412       	76.56819       	76.3028        	76.5491        	75.83005       	77.037254      	76.65166       	75.81527       	76.308655      	76.5396        	76.35166       	76.34079       	76.50545       	76.29117       	76.512115      	76.161766      	76.656265      	76.30379       	76.56609       	76.13256       	76.340965      	76.18445       	76.70078       	76.32755       	76.43335       	76.38137       	76.07439       	76.09859       	76.42593       	76.40402       	76.6203        	76.1734        	76.42842       	76.34556       	76.43663       	76.09211       	76.47406       	76.364235      	76.25903       	76.45126       	76.34991       	76.23211       	76.48797       	76.579796      	76.27159       	76.40785       	76.21541       	76.64612       	76.12427       	76.72002       	76.27803       	76.50244       	76.17724       	76.45333       	76.28047       	76.273544      	76.78921       	76.11834       	76.62773       	76.62612       	76.067764      	76.40677       	76.3826        	76.31766       	76.17403       	76.53143       	76.72394       	76.45241       	76.25588       	76.00761       	76.431915      	
76.10299       	76.508316      	76.65116       	76.30485       	76.375         	76.32605       	76.33591       	76.51754       	76.22559       	76.41569       	76.51678       	76.16119       	76.18809       	76.570595      	76.36942       	76.24038       	76.350784      	76.45075       	76.51555       	76.312         	76.444305      	76.626755      	76.34232       	76.474846      	76.447395      	76.19661       	76.18539       	76.40855       	76.392         	76.37184       	76.241135      	76.3145        	76.42533       	76.51831       	76.2539        	76.32123       	76.58451       	76.407265      	76.37566       	76.07039       	76.47547       	76.4937        	76.22987       	76.60399       	76.09463       	76.56541       	76.13719       	76.61118       	76.30753       	76.425285      	76.28524       	76.38897       	76.29184       	76.53684       	76.33205       	76.084724      	76.17341       	76.25671       	76.488754      	76.41621       	76.316696      	76.40495       	76.27573       	76.63904       	76.17698       	76.59201       	76.166916      	76.5225        	76.00752       	76.4747        	76.42272       	76.23819       	76.25682       	76.35365       	76.63528       	76.22183       	76.51437       	76.476074      	76.519875      	76.24194       	76.350044      	76.41369       	76.418846      	76.35963       	76.4744        	76.42614       	76.13461       	76.58708       	76.42422       	76.18281       	76.49231       	76.48616       	76.182816      	76.299         	76.42495       	76.4136        	76.68003       	76.41378       	76.22096       	76.33319       	
76.26526       	76.56008       	76.174446      	76.33428       	76.3557        	76.29737       	76.817924      	76.27136       	76.54413       	76.04516       	76.64644       	76.3495        	76.16102       	76.548965      	76.32245       	76.14703       	76.5243        	76.42354       	76.3126        	76.36136       	76.49797       	76.515945      	76.2886        	76.43629       	76.64931       	76.10506       	76.387596      	76.376945      	76.4376        	76.2548        	76.18406       	76.40745       	76.39733       	76.51381       	76.28296       	76.36063       	76.21868       	76.52672       	76.30962       	76.3354        	76.43262       	76.22793       	76.52776       	76.31335       	76.27162       	76.62831       	76.19111       	76.67935       	76.21956       	76.122345      	76.77152       	76.39021       	76.21544       	76.62093       	75.989914      	76.21967       	76.47753       	76.22557       	76.368256      	76.3468        	76.141754      	76.37644       	76.39006       	76.39891       	76.40796       	76.64751       	76.00001       	76.54326       	76.09339       	76.49356       	76.462654      	76.538345      	76.038826      	76.228455      	76.53521       	76.32408       	76.64171       	76.38969       	76.2147        	76.40624       	76.3314        	76.330765      	76.41596       	76.30275       	76.51101       	76.47982       	76.40786       	76.45063       	76.33933       	76.6044        	75.96939       	76.217415      	76.64042       	76.6348        	75.90073       	76.68556       	76.57128       	76.07247       	76.19578       	76.665695      	
76.364204      	76.42926       	76.303474      	76.25585       	76.55674       	76.46381       	76.06333       	76.30859       	76.578026      	76.3642        	76.391205      	76.313065      	76.339096      	76.441986      	76.36641       	76.31086       	76.31998       	76.439156      	76.48178       	76.66832       	76.00027       	76.26317       	76.47285       	76.56861       	76.578026      	76.120224      	76.38172       	76.496346      	76.21226       	76.449615      	76.506836      	76.25016       	76.35652       	76.49999       	76.39403       	76.190865      	76.495995      	76.520256      	76.33433       	76.159775      	76.23097       	76.52364       	76.428986      	76.31266       	76.46447       	76.44903       	76.35665       	76.33255       	76.481445      	76.264084      	76.28564       	76.36273       	76.58259       	76.23912       	76.293976      	76.13515       	76.601364      	76.03927       	76.245026      	76.43753       	76.40942       	76.31348       	76.375885      	76.35032       	76.347015      	76.62043       	76.22955       	76.300766      	76.56847       	76.41853       	76.27601       	76.37427       	76.346954      	76.3605        	76.40428       	76.12983       	76.372826      	76.49102       	76.37087       	76.34314       	76.35079       	76.22943       	76.446045      	76.25025       	76.56906       	76.349205      	76.4157        	76.610405      	76.3809        	76.368935      	76.32095       	76.303894      	76.421814      	76.37884       	76.383255      	76.585655      	76.586006      	76.28007       	76.339226      	76.6458        	
76.19709       	76.28739       	76.49972       	76.13802       	76.32381       	76.47891       	76.49239       	76.461136      	76.433754      	76.254814      	76.505974      	76.40439       	76.23165       	76.4624        	76.370735      	76.133896      	76.46579       	76.19663       	76.556816      	76.38401       	76.37661       	76.27145       	76.47498       	76.543365      	76.49602       	76.52905       	76.23487       	76.533         	76.257904      	76.34404       	76.4377        	76.307724      	76.115746      	76.4964        	76.238075      	76.342094      	76.43753       	76.51599       	76.36957       	76.289154      	76.39474       	76.32091       	76.3095        	76.40109       	76.35944       	76.55219       	76.25747       	76.59936       	76.27392       	76.06717       	76.6841        	76.36345       	76.28982       	76.36009       	76.40648       	76.38607       	76.22092       	76.062386      	76.53592       	76.38382       	76.37685       	76.40148       	76.394455      	76.67788       	75.9107        	76.41991       	76.26803       	76.228485      	76.40188       	76.500336      	76.292694      	76.61427       	76.16931       	76.53847       	76.15196       	76.24628       	76.720535      	76.192245      	76.462814      	76.2831        	76.33482       	76.73978       	76.31964       	76.489204      	76.230354      	76.51885       	76.49086       	76.3312        	76.40545       	76.37575       	76.632385      	76.02672       	76.269264      	76.3897        	76.2596        	76.55805       	75.626144      	76.4787        	78.35584       	78.254845      	
76.39971       	76.51631       	76.51775       	76.400055      	75.97302       	76.55592       	76.341446      	76.37169       	76.32447       	76.23599       	76.509865      	76.27213       	76.56896       	76.139435      	76.041435      	76.508064      	76.49133       	76.25212       	76.52033       	76.28299       	76.44894       	76.47617       	76.35979       	76.56977       	76.3167        	76.59385       	76.40537       	76.323944      	76.34971       	76.20574       	76.59936       	76.22857       	76.27682       	76.235565      	76.475464      	76.27568       	76.35346       	76.41256       	76.31935       	76.50104       	76.384674      	76.51841       	76.25887       	76.40004       	76.29989       	76.33461       	76.30383       	76.41691       	76.413536      	76.61419       	76.264206      	76.35843       	76.453896      	76.38482       	76.29282       	76.20855       	76.61081       	75.99994       	76.34756       	76.17323       	76.65966       	76.35533       	76.387115      	76.31698       	76.38677       	76.233215      	76.39563       	76.31179       	76.474236      	76.48936       	76.0521        	76.33675       	76.47436       	76.26848       	76.40695       	76.70348       	76.09735       	76.35336       	76.20215       	76.45629       	76.57662       	76.30677       	76.37857       	76.34585       	76.58547       	76.08896       	76.55975       	76.588394      	76.462746      	76.448875      	76.637245      	75.77988       	76.46635       	76.25653       	76.45347       	76.40618       	76.53941       	76.305         	76.35975       	76.23219       	
76.39363       	76.53685       	76.52458       	76.14755       	76.20684       	76.444405      	76.54049       	76.480865      	76.294426      	76.47529       	76.306244      	76.47702       	76.32488       	76.23109       	76.6434        	76.48281       	76.22497       	76.12028       	76.66724       	76.30382       	76.484055      	76.46939       	76.33252       	76.554855      	76.09892       	76.61113       	76.3           	76.24119       	76.56526       	76.356926      	76.35886       	76.280235      	76.23274       	76.55354       	76.25349       	76.28329       	76.59363       	76.529106      	76.0774        	76.490135      	76.22728       	76.6018        	76.194145      	76.30264       	76.37328       	76.56846       	76.28728       	76.42545       	76.168816      	76.37769       	76.64276       	76.30249       	76.25411       	76.58201       	76.262085      	76.07703       	76.56187       	76.41136       	76.0228        	76.267914      	76.35743       	76.66879       	76.34218       	76.29397       	76.41635       	76.27713       	76.35327       	76.359764      	76.21483       	76.49374       	76.43734       	76.2935        	76.35842       	76.37893       	76.54453       	76.47571       	76.30422       	76.42622       	76.41917       	76.416695      	76.32504       	76.53814       	76.21805       	76.248375      	76.44163       	76.24455       	76.57291       	76.463234      	76.39228       	76.33583       	76.56605       	76.01969       	76.56829       	76.30951       	76.2302        	76.34624       	76.55343       	76.394905      	76.60206       	76.73598       	
76.23327       	76.12229       	76.53696       	76.70399       	75.90595       	76.674225      	76.571556      	76.026         	76.14176       	76.57611       	76.3534        	76.305214      	76.27146       	76.69101       	76.334236      	76.181046      	76.27678       	76.45859       	76.352516      	76.308495      	76.43493       	76.528275      	76.309204      	76.54689       	76.47083       	76.12578       	76.34196       	76.51076       	76.39592       	76.44452       	76.48265       	76.20479       	76.32771       	76.35037       	76.437675      	76.27353       	76.560356      	76.377525      	76.338875      	76.371735      	76.39165       	76.55759       	76.388016      	76.2205        	76.67451       	76.33257       	76.21554       	76.53241       	76.3533        	76.34062       	76.37259       	76.63184       	76.2476        	76.386         	76.43536       	76.34308       	76.280075      	76.22843       	76.09006       	76.36767       	76.406715      	76.29638       	76.38998       	76.397606      	76.323944      	76.37631       	76.31386       	76.381805      	76.54353       	76.21131       	76.376076      	76.48216       	76.31559       	76.485306      	76.53306       	76.33905       	76.25904       	76.205414      	76.70741       	76.32892       	76.28518       	76.42053       	76.47301       	76.33851       	76.276665      	76.51994       	76.59151       	76.44293       	76.28465       	76.456696      	76.55867       	76.35983       	76.57311       	76.036964      	76.55754       	76.33368       	76.234184      	75.83352       	76.18127       	76.248085      	
76.45134       	76.38487       	76.3918        	76.41265       	76.29869       	76.46066       	76.29585       	76.45284       	76.33366       	76.38782       	76.32012       	76.49989       	76.37202       	76.49675       	76.08333       	76.38225       	76.33473       	76.43725       	76.43228       	76.05581       	76.56441       	76.63211       	76.27781       	76.580605      	76.35899       	76.29033       	76.26827       	76.517914      	76.45341       	76.29548       	76.431816      	76.32448       	76.52185       	76.208534      	76.34584       	76.46392       	76.14463       	76.61208       	76.276405      	76.36387       	76.27642       	76.30141       	76.34056       	76.23161       	76.450455      	76.40522       	76.37874       	76.34785       	76.33144       	76.399796      	76.48978       	76.36856       	76.20812       	76.479485      	76.430305      	76.384544      	76.369194      	76.13957       	76.5264        	76.26564       	76.57732       	76.50362       	75.877846      	76.40045       	76.404236      	76.39332       	76.492836      	76.51475       	76.10493       	76.362274      	76.32084       	76.328384      	76.26082       	76.34783       	76.42282       	76.54003       	76.1603        	76.317406      	76.58263       	76.429756      	76.16615       	76.60562       	76.50434       	76.18809       	76.40291       	76.234665      	76.633575      	76.63758       	76.105125      	76.3906        	76.498474      	76.358215      	76.41463       	76.30642       	76.136         	75.82978       	76.145256      	80.18298       	81.816864      	78.97932       	
76.22665       	76.10234       	76.49191       	76.46241       	76.23919       	76.44106       	76.369705      	76.276146      	76.65916       	76.35767       	76.35499       	76.52928       	76.33968       	76.20311       	76.56947       	76.18902       	76.534         	76.27961       	76.355316      	76.56336       	76.2143        	76.256         	76.48499       	76.35592       	76.53199       	76.50513       	76.28678       	76.28625       	76.29251       	76.225494      	76.50255       	76.411255      	76.46296       	76.24724       	76.39838       	76.43958       	76.13639       	76.42699       	76.44981       	76.413506      	76.157074      	76.46082       	76.30129       	76.41867       	76.47809       	76.42006       	76.35208       	76.277466      	76.32436       	76.27434       	76.65277       	76.42189       	76.34286       	76.43668       	76.37826       	76.53374       	76.36381       	76.36525       	75.980194      	76.188995      	76.45397       	76.16684       	76.412926      	76.33427       	76.090675      	76.33979       	76.575806      	76.202354      	76.39678       	76.300385      	76.58511       	76.23548       	76.550385      	76.30777       	76.25642       	76.46924       	76.23716       	76.37635       	76.432785      	76.477455      	76.24807       	76.30193       	76.44197       	76.21932       	76.41023       	76.240456      	76.56622       	76.469406      	76.391205      	76.43437       	76.2148        	75.773964      	76.14234       	78.04845       	77.325966      	78.56178       	78.34051       	77.47618       	77.592224      	77.52965       	
76.444984      	76.35492       	76.175026      	76.36406       	76.2266        	76.569145      	76.248055      	76.50108       	76.31311       	76.26866       	76.43442       	76.34886       	76.610664      	76.44398       	76.04175       	76.46493       	76.351555      	76.63045       	76.367546      	76.26847       	76.56784       	76.37906       	76.40791       	76.19456       	76.37712       	76.71325       	76.24336       	76.299706      	76.52213       	76.264824      	76.44706       	76.5018        	76.40444       	76.26568       	76.08118       	76.63176       	76.265686      	76.323074      	76.39046       	76.516174      	76.24173       	76.5638        	76.39381       	75.93082       	76.49393       	76.49212       	76.53433       	76.368675      	76.23407       	76.4159        	76.4425        	76.30552       	76.3649        	76.33911       	76.32751       	76.42851       	76.38261       	76.39274       	76.11486       	76.17975       	76.30443       	76.33328       	76.52864       	76.42474       	76.24408       	76.241135      	76.342995      	76.38509       	76.367546      	76.45966       	76.18476       	76.43021       	76.32476       	76.453766      	76.558334      	76.42875       	76.25508       	76.473495      	76.14858       	76.4286        	76.41258       	76.437904      	76.278854      	76.08993       	76.488655      	76.25345       	76.00545       	75.92582       	77.90167       	76.85456       	78.798256      	77.94941       	77.26494       	76.60824       	76.992096      	76.88099       	76.5968        	76.6465        	76.733894      	76.469574      	
76.45866       	76.3975        	76.43493       	76.5597        	76.24861       	76.6458        	76.41944       	76.42527       	76.08706       	76.34931       	76.42507       	76.26806       	76.41285       	76.48166       	76.244385      	76.508606      	76.34487       	76.38218       	76.38746       	76.37066       	76.24016       	76.559875      	76.35299       	76.34098       	76.54847       	76.59381       	76.06684       	76.284775      	76.50146       	76.27578       	76.25502       	76.39985       	76.65083       	76.32475       	76.28245       	76.43613       	76.460335      	76.264885      	76.22743       	76.39219       	76.52867       	76.25718       	76.42024       	76.1449        	76.398895      	76.46393       	76.40785       	76.280685      	76.343506      	76.586296      	76.31703       	76.22207       	76.39576       	76.28383       	76.36054       	76.43377       	76.613976      	76.55875       	75.86856       	76.234985      	76.49002       	76.236755      	76.13151       	76.49973       	76.38702       	76.317955      	76.52718       	76.43433       	76.47661       	76.17925       	76.20558       	76.67555       	76.05248       	76.23818       	76.333694      	76.31011       	76.36526       	76.287125      	76.434006      	76.4545        	76.097626      	76.65341       	76.1336        	76.16782       	76.36829       	75.53711       	79.717964      	78.90653       	77.63953       	77.15923       	76.61235       	76.61817       	76.63782       	76.691956      	76.35216       	76.18638       	76.47777       	76.31195       	76.26863       	76.34699       	
76.20631       	76.3327        	76.30025       	76.46433       	76.21781       	76.60285       	76.44152       	76.29835       	76.54458       	76.250824      	76.283485      	76.56738       	76.23588       	76.560326      	76.3481        	76.10969       	76.63841       	76.204796      	76.15924       	76.625435      	76.39169       	76.33735       	76.58837       	76.18811       	76.59146       	76.26354       	76.62529       	76.144806      	76.32724       	76.13536       	76.54815       	76.41198       	76.380684      	76.58746       	76.25044       	76.21135       	76.37709       	76.32049       	76.67514       	76.3989        	76.09827       	76.47603       	76.26516       	76.126274      	76.611336      	76.20466       	76.22774       	76.5171        	76.30353       	76.48753       	76.28739       	76.333786      	76.51044       	76.28956       	76.43274       	76.56407       	76.17031       	76.2402        	76.397995      	76.177635      	76.13588       	76.66959       	76.21525       	76.221306      	76.53474       	76.25962       	76.26975       	76.24764       	76.66301       	76.32252       	76.524635      	76.23396       	76.39128       	76.5165        	76.27887       	76.425705      	76.40893       	76.29049       	76.52914       	76.40463       	76.003365      	76.945335      	76.23752       	76.58257       	74.89807       	79.24207       	79.23581       	77.29755       	77.5809        	76.7337        	76.0702        	76.68042       	76.343506      	76.35686       	76.511375      	76.34585       	76.23346       	76.13446       	76.53458       	76.39212       	
76.12599       	76.57236       	76.3934        	76.17693       	76.53628       	76.43622       	76.37248       	76.49798       	76.511444      	76.10879       	76.44419       	76.346954      	76.53311       	76.296196      	76.477585      	76.28789       	76.17937       	76.33105       	76.5566        	76.40076       	76.29523       	76.44964       	76.23718       	76.5135        	76.604416      	76.54109       	76.72869       	75.85888       	76.167         	76.538765      	76.094475      	76.46011       	76.537224      	76.201         	76.38067       	76.15262       	76.402405      	76.554         	76.33542       	76.29994       	76.370705      	76.59721       	76.34198       	76.36808       	76.415565      	76.35741       	76.207886      	76.61344       	76.3798        	76.22997       	76.49349       	76.26756       	76.49334       	76.576324      	76.19214       	76.46114       	76.1251        	76.30997       	76.45779       	76.296555      	76.28547       	76.288025      	76.17354       	76.291794      	76.5709        	76.365875      	76.26855       	76.590576      	76.267204      	76.286575      	76.444595      	76.27577       	76.55585       	76.046585      	76.41652       	76.37802       	76.31801       	76.34592       	76.20868       	76.29731       	76.35964       	76.40849       	76.08223       	75.88245       	77.47941       	80.13194       	77.832085      	77.131096      	77.16639       	76.88351       	76.145325      	76.30336       	76.529106      	76.64462       	76.102066      	76.47305       	76.3249        	76.18766       	76.59418       	76.69172       	
76.340775      	76.47186       	76.334946      	76.06985       	76.66106       	76.39307       	75.636894      	77.132126      	76.310715      	76.26866       	76.426865      	76.4416        	76.44678       	76.20051       	76.53187       	76.39567       	76.44282       	76.485344      	76.15848       	76.46493       	76.220505      	76.46925       	76.35397       	76.39121       	76.394844      	76.577156      	76.46671       	76.46284       	76.34869       	76.384834      	76.34273       	76.19189       	76.542625      	75.796394      	76.92408       	76.26177       	76.29636       	76.158585      	76.686676      	76.41451       	76.319046      	76.17558       	76.46848       	76.28007       	76.53211       	76.427444      	76.245926      	76.34523       	76.21561       	76.54761       	76.273094      	76.398926      	76.38907       	76.27876       	76.455734      	76.38596       	76.40734       	76.207306      	76.3394        	76.37669       	76.236855      	76.32158       	76.446976      	76.350464      	76.285034      	76.50954       	76.45727       	76.26696       	76.439125      	75.79768       	76.37816       	76.374435      	76.28541       	76.22954       	76.55581       	76.41389       	76.1996        	76.40418       	76.580475      	76.16543       	76.07131       	76.11816       	76.5281        	75.90726       	77.88935       	79.45061       	77.80606       	76.77425       	77.468254      	76.90374       	76.37882       	76.36859       	76.36257       	76.48737       	76.207146      	76.519485      	76.76695       	76.121704      	76.26867       	76.69756       	
76.45488       	76.30066       	76.34953       	76.46519       	76.29019       	76.48608       	76.20131       	76.219025      	76.48901       	76.27978       	76.25585       	76.17618       	76.60675       	76.47696       	76.20492       	76.501434      	76.27679       	76.50973       	76.427864      	76.323395      	76.487274      	76.090576      	76.51243       	76.45962       	76.459404      	76.29168       	76.230415      	76.48659       	75.99845       	76.31667       	76.212135      	75.43963       	77.04005       	76.97162       	77.60255       	76.425705      	75.86573       	76.1773        	76.517494      	76.27906       	76.38281       	76.63065       	76.27307       	76.5442        	76.27644       	76.24929       	76.42746       	76.403275      	76.348274      	76.22175       	76.40428       	76.37824       	76.37457       	76.471375      	76.17829       	76.37589       	76.23044       	76.641525      	76.35995       	76.341354      	76.20527       	76.14545       	76.48389       	76.33516       	76.302086      	76.439384      	76.414505      	76.23225       	76.354805      	76.245476      	76.44348       	76.26889       	76.38592       	76.509315      	76.31136       	76.45374       	76.28318       	76.15831       	76.54473       	76.29725       	76.157104      	76.39253       	76.24172       	76.21244       	77.12474       	79.37375       	78.21416       	76.53996       	77.3856        	77.38734       	76.31418       	76.3622        	76.34623       	76.60468       	76.4098        	76.17145       	76.37049       	76.59194       	76.10134       	76.33522       	
76.54279       	76.392525      	76.28173       	76.49314       	76.31418       	76.46632       	76.34811       	76.22896       	76.48855       	76.55442       	76.20358       	76.47974       	76.34207       	76.423584      	76.0766        	76.560265      	76.46064       	76.35358       	76.40394       	76.44551       	76.24413       	76.403145      	76.338394      	76.42882       	76.40284       	76.32379       	76.489105      	76.52572       	76.403175      	76.53569       	76.18434       	76.2373        	76.53318       	76.36378       	76.209595      	76.63268       	76.28635       	76.25982       	76.38526       	76.490616      	76.4501        	76.25946       	76.30304       	76.48654       	76.1296        	76.32179       	76.60574       	76.23938       	76.514496      	76.3451        	76.28932       	76.41838       	76.417496      	76.57305       	76.19249       	76.52458       	76.24636       	76.46969       	76.45046       	76.01075       	76.23443       	76.426384      	76.37544       	76.451195      	76.200165      	76.22834       	76.382164      	76.48557       	76.344826      	76.38668       	76.4629        	76.33803       	76.27462       	76.105385      	76.6825        	76.23299       	76.181335      	76.49673       	76.424034      	76.00183       	76.52983       	76.1316        	76.367035      	76.03243       	76.64806       	79.18119       	78.333534      	77.16174       	76.89464       	77.23485       	76.81276       	76.334595      	76.13727       	76.41944       	76.53879       	76.69518       	76.76959       	75.92331       	74.92231       	75.36425       	
76.38297       	76.27048       	76.334656      	76.47705       	76.247284      	76.455696      	76.25603       	76.56153       	76.25833       	76.34637       	76.36554       	76.6092        	76.27025       	76.36604       	76.24425       	76.61924       	76.268585      	76.235985      	76.24011       	76.41716       	76.40572       	76.38017       	76.59645       	76.218124      	76.44191       	76.23275       	76.24075       	76.80506       	76.36056       	76.27563       	76.42849       	76.30964       	76.33508       	76.32724       	76.33694       	76.50195       	76.4355        	76.339485      	76.28053       	76.46152       	76.39387       	76.50929       	76.26193       	76.3825        	76.35274       	76.33209       	76.39232       	76.448784      	76.52444       	76.14449       	76.44039       	76.01846       	76.49876       	76.43941       	76.64708       	76.33331       	76.516396      	76.58997       	76.32239       	76.24837       	76.410576      	75.96253       	76.39543       	76.30291       	76.386635      	76.334625      	76.42351       	76.391945      	76.32089       	76.45273       	76.40642       	75.8039        	76.34464       	76.33341       	76.41538       	76.34292       	76.23907       	76.63196       	76.166664      	75.891975      	76.743286      	76.276566      	76.175354      	76.209785      	74.913925      	79.214134      	79.110504      	77.768105      	77.0274        	77.52931       	77.05957       	76.06886       	76.377174      	76.24645       	76.50891       	75.99158       	76.15766       	76.08619       	76.61911       	77.217316      	
76.446526      	76.179535      	76.243324      	76.491905      	76.28109       	76.43763       	76.329315      	76.422295      	76.260956      	76.4143        	76.45561       	76.355         	76.39098       	76.544365      	76.25787       	76.26056       	76.41016       	76.393745      	76.42921       	76.3587        	76.23657       	76.41801       	76.31068       	76.44126       	76.34997       	76.46935       	76.38181       	76.57862       	76.474236      	76.30639       	76.3223        	76.311874      	76.518875      	76.41968       	76.49364       	76.248726      	76.25974       	76.34897       	76.504776      	76.41202       	76.23933       	76.48588       	76.24862       	76.36773       	76.12975       	76.363945      	76.487656      	76.37163       	76.34929       	76.28349       	76.316795      	76.196686      	76.41076       	76.08293       	76.50208       	77.00203       	78.65313       	78.742966      	76.846565      	75.56135       	75.533005      	74.76156       	73.48013       	75.66778       	76.23105       	76.390076      	76.185585      	76.51831       	76.40384       	76.40223       	76.28912       	76.30779       	76.47739       	76.1617        	76.49259       	76.37752       	76.330025      	76.30758       	76.18324       	76.289536      	76.18943       	76.306145      	76.30278       	76.04525       	75.54132       	78.4028        	79.31918       	77.99069       	77.00498       	76.835144      	77.09657       	76.21926       	76.47126       	76.46232       	76.90318       	76.14856       	75.897644      	76.27089       	76.0775        	76.32065       	
76.32773       	75.99042       	76.7897        	76.31049       	76.36723       	76.28437       	76.318275      	76.3967        	76.50763       	76.30571       	76.389885      	76.47813       	76.37497       	76.35628       	76.36801       	76.41979       	76.31853       	76.54076       	76.03077       	76.41684       	76.384895      	76.651985      	76.06618       	76.39041       	76.51535       	76.57972       	76.31698       	76.35235       	76.62849       	76.2691        	76.58113       	76.02623       	76.45531       	76.137436      	76.77948       	76.2553        	76.1765        	76.49728       	76.23744       	76.41341       	76.4261        	76.37543       	76.2321        	76.266174      	76.28011       	76.36982       	76.27963       	76.337654      	76.57424       	75.967705      	76.10454       	75.95189       	78.10496       	78.95718       	78.10629       	76.99894       	76.36667       	77.09679       	77.15956       	76.132774      	76.55782       	75.32793       	71.953255      	74.058556      	76.32633       	76.33384       	76.39766       	76.454124      	76.30436       	76.26068       	76.43636       	76.39054       	76.4122        	76.171425      	76.54108       	76.395584      	76.364334      	76.162025      	76.5255        	76.33754       	76.27723       	76.2695        	76.367615      	76.13387       	76.01658       	77.497856      	79.26281       	77.648315      	77.39718       	77.45057       	77.10676       	76.21302       	76.475464      	76.43961       	76.19908       	76.14073       	76.03664       	76.09314       	76.46792       	76.89303       	
76.22022       	76.31927       	76.558495      	76.27894       	76.56367       	76.172935      	76.54315       	76.17668       	76.286545      	76.08421       	76.87105       	76.185905      	76.52667       	76.2574        	76.48857       	76.356575      	76.44038       	76.35204       	76.30135       	76.18682       	76.642975      	76.235344      	76.536026      	76.309944      	76.47487       	76.12655       	76.007774      	76.929276      	76.2041        	76.478546      	76.10015       	76.927734      	76.28052       	76.129196      	76.34122       	76.531136      	76.600586      	76.60146       	76.39251       	76.107086      	76.291214      	76.54705       	76.03331       	76.6024        	76.04345       	76.0997        	77.47712       	76.75847       	77.994064      	78.10854       	77.24476       	76.77885       	76.70886       	77.18946       	76.58653       	76.31277       	76.45005       	76.312035      	76.10911       	76.45189       	75.12613       	74.72817       	74.45448       	71.06074       	76.57607       	76.311         	76.53833       	76.303085      	76.32281       	76.47987       	76.29007       	76.267136      	76.411545      	76.3005        	75.993286      	76.78738       	76.32278       	76.22018       	76.31378       	76.07548       	76.44616       	76.20793       	76.07314       	76.41835       	76.252335      	75.28892       	79.77966       	78.86631       	77.40056       	77.186005      	77.5842        	76.39678       	76.44594       	76.28857       	76.26036       	76.18861       	76.27767       	76.187256      	76.31859       	76.03208       	
76.19022       	76.41342       	76.47089       	76.18295       	76.22559       	76.396805      	76.27373       	76.3573        	76.50755       	76.25262       	76.25975       	76.415886      	76.49177       	76.25221       	76.36275       	76.35147       	76.58025       	76.43639       	76.19783       	76.40513       	76.18523       	76.47408       	76.645         	75.916695      	76.55382       	76.27327       	76.35035       	76.91747       	76.15692       	76.41339       	76.381424      	76.44728       	76.22225       	76.44078       	76.51738       	76.39432       	76.006         	76.48748       	76.312965      	76.40187       	75.87533       	76.02211       	79.2028        	76.13728       	78.15971       	77.44917       	77.49945       	76.54763       	77.24038       	76.377365      	76.59621       	76.46365       	76.10324       	76.49182       	76.35699       	76.181175      	76.524765      	76.55283       	76.47136       	76.0043        	76.70098       	74.57673       	74.59091       	72.91228       	73.31642       	76.25524       	76.3472        	76.195625      	76.46704       	76.378845      	76.166794      	76.2039        	76.5583        	76.12065       	76.26204       	76.50174       	76.27002       	76.33989       	76.30063       	76.26997       	76.34364       	76.18398       	76.213394      	76.27831       	76.15065       	75.64314       	79.6171        	78.79972       	77.377655      	76.798706      	77.38577       	76.58763       	76.59062       	76.23762       	76.27614       	76.31027       	76.48932       	76.177216      	76.426186      	75.99908       	
76.68389       	76.32872       	76.263306      	76.41271       	76.36744       	76.237045      	76.52298       	76.185646      	76.30047       	76.388504      	76.56778       	76.05909       	76.629234      	76.14581       	76.52482       	76.316795      	76.581894      	76.37033       	76.143555      	76.275764      	76.52916       	76.28699       	76.49862       	76.160904      	76.512146      	76.26039       	76.486786      	76.62872       	76.28856       	76.273575      	76.167         	76.79117       	76.26736       	76.36802       	76.4024        	76.21301       	76.221794      	75.92423       	77.95114       	77.63205       	77.45768       	78.103806      	77.07717       	76.857315      	76.8786        	76.81497       	76.3098        	76.32722       	76.39519       	76.48087       	76.17966       	76.43371       	76.19528       	76.5796        	76.36646       	76.24065       	76.65574       	76.25381       	76.15658       	76.66872       	76.82816       	73.82524       	74.55255       	74.53689       	74.079346      	76.265366      	76.27269       	76.35773       	76.439804      	76.37354       	76.16166       	76.47654       	76.11473       	76.51443       	76.56403       	76.09737       	76.52658       	76.41101       	76.20706       	76.41997       	76.087         	76.3872        	76.3862        	76.27786       	76.05671       	75.565735      	78.91925       	79.10526       	77.25127       	77.07798       	77.442276      	77.19153       	76.412125      	76.30961       	76.64691       	76.3586        	76.20401       	76.35867       	76.30874       	76.3445        	
76.25104       	76.220184      	76.35715       	76.49317       	76.22039       	76.303246      	76.420906      	75.75687       	77.1387        	76.254776      	76.7994        	76.038666      	76.24785       	76.4419        	76.42677       	76.19902       	76.29154       	76.39786       	75.97578       	76.45325       	76.249115      	76.371735      	76.43104       	76.33742       	76.39433       	76.36307       	76.49408       	75.82962       	76.906586      	76.26597       	76.44546       	76.26535       	76.11005       	75.57055       	79.514755      	78.5837        	76.80083       	76.885254      	77.65041       	76.80502       	76.54619       	76.42086       	76.62626       	76.18616       	76.144646      	76.68268       	76.48301       	76.281456      	76.208336      	76.36344       	76.54112       	76.0493        	76.518394      	76.52422       	76.476425      	76.33911       	76.3431        	76.209305      	76.35092       	76.74154       	76.27037       	75.8543        	73.75922       	73.61146       	71.92099       	76.43043       	76.55293       	76.30965       	76.092575      	76.47686       	76.26081       	76.51614       	76.39033       	76.20424       	76.48685       	76.257515      	76.395386      	76.45836       	76.240944      	76.27077       	76.38447       	76.51656       	76.0129        	76.39904       	76.00434       	76.009         	76.827         	79.32788       	78.52781       	77.09296       	77.11056       	77.10844       	76.56097       	76.27979       	76.26288       	76.54568       	75.65396       	76.77414       	77.67753       	76.83685       	
76.28708       	76.23028       	76.613625      	76.51067       	76.3167        	76.24937       	76.12744       	76.57681       	76.201065      	76.6684        	76.04811       	76.12636       	76.32966       	76.44868       	76.42318       	76.10939       	75.95683       	76.63054       	76.50085       	76.51621       	76.02506       	77.153015      	76.19881       	76.22887       	76.34679       	76.15857       	76.42427       	76.38055       	75.67196       	78.272125      	75.685875      	78.90725       	78.22202       	76.93956       	77.38328       	77.04633       	76.36889       	76.71173       	76.29554       	76.219315      	76.53502       	76.31228       	76.50529       	75.92336       	76.58915       	76.42605       	76.39025       	76.44554       	76.202995      	76.464134      	76.135155      	76.46093       	76.36078       	76.11826       	76.4518        	76.28609       	76.48447       	76.309         	76.2338        	76.519875      	76.72668       	76.67973       	74.89426       	72.62859       	70.70155       	76.08404       	76.251945      	76.42085       	76.42611       	76.16829       	76.374626      	76.37639       	76.547646      	76.304085      	75.960785      	76.70052       	76.13145       	76.35886       	76.51391       	76.15957       	76.42923       	76.23845       	76.11198       	76.555214      	76.1434        	76.17229       	75.36146       	80.23311       	78.48898       	77.50799       	77.16922       	77.367584      	76.29307       	76.560486      	76.09207       	76.229126      	76.33305       	76.33337       	76.515656      	76.48911       	
76.292564      	76.3988        	76.083855      	76.86471       	75.82433       	76.36769       	76.20967       	76.686104      	76.16242       	76.34411       	76.66166       	76.16827       	76.48695       	76.07908       	76.51064       	76.59018       	76.43295       	76.36515       	76.27185       	76.1912        	76.600945      	76.40044       	76.236244      	76.39811       	75.98103       	76.1335        	76.31236       	79.25251       	79.152435      	77.2728        	76.11364       	77.034904      	76.963005      	76.65457       	76.23611       	76.498634      	76.21979       	76.535225      	76.35394       	76.34386       	76.4326        	76.171455      	76.54507       	76.25344       	76.28044       	76.32422       	76.443405      	76.431656      	76.391754      	76.53074       	76.1573        	76.33621       	76.59147       	76.180374      	76.53247       	76.06166       	76.6473        	76.375755      	76.240166      	76.78347       	75.91358       	76.867455      	75.48878       	73.74489       	72.15963       	73.266235      	76.117874      	76.19004       	76.814705      	76.16499       	76.22914       	76.2789        	76.45384       	76.264366      	76.28943       	76.33158       	76.36747       	76.61392       	76.11236       	76.20985       	76.28777       	76.20824       	76.29478       	76.14341       	75.94687       	76.35168       	75.90396       	79.22558       	79.13871       	77.499115      	77.3053        	77.17798       	76.83797       	76.36052       	76.19873       	76.24934       	75.80417       	76.47232       	76.73366       	77.15055       	
76.46392       	75.9935        	76.59661       	76.282875      	76.427925      	76.283134      	76.39698       	76.35964       	76.22005       	76.54866       	76.21829       	76.20114       	76.383575      	76.707825      	76.33908       	76.110016      	76.07386       	76.95611       	76.03388       	76.45453       	76.50663       	75.99146       	76.133995      	76.400665      	75.547104      	77.72874       	79.4778        	79.0527        	77.816986      	76.47166       	76.168106      	76.68388       	76.14616       	76.27716       	76.42142       	76.427124      	76.31409       	76.51519       	76.2988        	76.336044      	76.374245      	76.40544       	75.94381       	76.62858       	76.37075       	76.5771        	76.42069       	76.40855       	76.35535       	76.41887       	76.433334      	76.2775        	76.357895      	76.45403       	76.17724       	76.68121       	76.10717       	76.5597        	76.17372       	76.391815      	76.58385       	76.39187       	75.41869       	74.3172        	72.997314      	72.71066       	76.41339       	76.33953       	76.56845       	76.110016      	76.310646      	76.51301       	76.277885      	76.17365       	76.50644       	76.46246       	76.49403       	76.23609       	76.28034       	76.48193       	76.0356        	76.196724      	76.38586       	76.21775       	76.14961       	76.23782       	75.71254       	78.13879       	79.18904       	78.25233       	76.87898       	77.436066      	77.006966      	75.97683       	76.63036       	76.413216      	76.00484       	76.57064       	76.31279       	76.324554      	
76.46379       	76.15472       	76.56664       	76.29694       	76.34734       	76.49845       	76.26339       	76.29142       	76.32371       	76.60453       	76.14997       	76.604294      	76.231445      	76.42487       	76.23427       	76.424545      	76.287834      	75.91567       	76.79097       	76.14608       	76.08028       	76.65714       	76.22241       	75.933235      	76.729225      	80.040215      	78.52351       	77.86155       	76.865715      	76.34495       	76.61691       	76.200645      	76.38156       	76.44646       	76.37715       	76.27695       	76.41788       	76.33076       	76.36018       	76.27385       	76.356674      	76.35199       	76.47891       	76.551445      	76.34885       	76.376335      	76.20817       	76.534004      	76.571556      	76.291046      	76.137764      	76.46027       	76.523346      	76.34895       	76.075676      	76.574005      	76.26425       	76.625534      	76.02589       	76.324486      	76.326195      	76.631256      	76.07478       	74.95039       	73.315895      	73.00508       	76.104126      	76.511765      	76.47063       	76.17512       	76.410515      	76.11027       	76.4726        	76.25515       	76.109474      	76.45613       	76.41016       	76.3529        	76.29625       	76.54233       	76.255455      	76.48553       	76.35527       	75.92513       	76.59346       	76.35567       	76.0582        	76.436676      	78.6565        	78.96869       	77.58432       	77.06917       	77.35407       	76.10475       	76.41896       	76.25288       	76.16046       	76.290504      	76.63749       	76.867966      	
76.70755       	76.38876       	76.47633       	76.29496       	76.34493       	76.41517       	75.758934      	76.641396      	76.52486       	76.09989       	76.44589       	76.348206      	76.384995      	76.668976      	76.116714      	76.21541       	76.59557       	76.38662       	76.28096       	76.25696       	75.80081       	76.45905       	76.3023        	75.24842       	79.27767       	78.85191       	77.97184       	77.20533       	77.21296       	76.412895      	75.9915        	76.68009       	76.265         	75.98675       	76.083725      	77.08144       	76.385445      	76.19723       	76.64324       	76.10354       	76.38792       	76.55789       	76.24943       	76.477516      	76.332535      	76.23865       	76.310524      	76.60387       	76.47504       	76.1071        	75.98338       	76.76456       	76.17478       	76.09273       	76.95159       	76.51811       	76.15615       	76.34363       	76.565254      	76.27063       	76.101036      	76.96612       	76.459045      	75.1722        	73.333824      	71.328         	74.097755      	76.390884      	75.7984        	76.80237       	76.25248       	76.24101       	76.74338       	76.243164      	76.170715      	76.348694      	76.46598       	76.44965       	76.06865       	76.536285      	76.26          	76.1848        	76.204506      	76.36706       	76.24413       	76.33306       	76.067314      	75.674355      	80.00561       	78.62454       	77.2595        	76.62468       	77.521545      	76.74098       	76.587456      	76.31225       	76.49188       	76.267365      	76.27038       	76.303986      	
76.31566       	76.40383       	76.39214       	76.53566       	76.2868        	76.26953       	76.57986       	75.89462       	76.738075      	76.18717       	76.45401       	76.30858       	76.39182       	76.44849       	76.343056      	76.182434      	76.054695      	76.503624      	76.46198       	75.82264       	76.50978       	76.27969       	75.958595      	75.356964      	79.987755      	78.826805      	77.58326       	77.17041       	77.42489       	76.30282       	76.023796      	76.833176      	76.11465       	76.40361       	76.271935      	76.58688       	76.28596       	76.442764      	76.30079       	76.37512       	75.91566       	76.82497       	76.261055      	76.57069       	76.23454       	76.453026      	76.41783       	76.38483       	76.23462       	76.50837       	76.387535      	76.170555      	76.2174        	76.69016       	76.833275      	75.717255      	76.69868       	76.11359       	76.585724      	76.31108       	76.35175       	76.32939       	76.76206       	76.21392       	74.26807       	71.511055      	74.561356      	75.52047       	77.30166       	76.65157       	75.82108       	76.43066       	76.40132       	76.40594       	76.263504      	76.091415      	76.741005      	76.17544       	76.51182       	75.95771       	76.39934       	76.46493       	76.271286      	76.199486      	76.41891       	76.32163       	76.17154       	75.93627       	77.745514      	79.428215      	77.80174       	77.71748       	77.30865       	76.50558       	75.968216      	75.49839       	76.7644        	76.54137       	76.49594       	76.77317       	
76.348976      	76.45811       	76.287865      	75.966125      	76.73061       	76.10727       	76.42453       	76.42206       	76.04648       	76.74746       	76.3163        	76.05966       	76.547935      	75.64228       	76.88451       	76.05508       	76.682434      	75.91489       	76.43053       	76.77784       	76.243454      	76.27344       	75.83378       	75.89191       	77.267         	79.46126       	77.36295       	78.173134      	77.32557       	76.14114       	76.94382       	76.16942       	76.414024      	76.17368       	76.78013       	76.437035      	76.190315      	76.22842       	76.447586      	76.49224       	76.012825      	76.449585      	76.27132       	76.77309       	76.1571        	76.375145      	76.52454       	76.29456       	76.360275      	76.41712       	76.446         	76.23803       	76.427124      	76.19585       	76.613625      	76.394264      	76.67549       	76.1544        	76.34294       	76.396065      	76.63058       	75.901505      	76.39756       	76.7948        	74.7619        	72.36648       	70.57706       	76.69054       	76.11644       	76.34354       	76.30827       	76.233734      	76.71511       	76.49624       	76.38465       	76.37155       	76.35074       	76.36371       	76.3335        	76.215004      	76.13751       	76.301704      	76.409096      	76.06161       	76.24536       	76.48016       	76.15045       	75.75551       	77.85888       	79.61369       	77.49917       	76.57075       	77.747986      	76.78603       	76.15132       	75.97919       	76.40106       	76.20184       	77.508934      	77.76425       	
76.23768       	76.37227       	76.53136       	76.311905      	76.028854      	76.83662       	76.30154       	75.70379       	76.56225       	76.64363       	76.17235       	76.21683       	76.33641       	76.59764       	75.92805       	76.37696       	76.448616      	76.5105        	75.96235       	76.37839       	76.353386      	76.337456      	76.039986      	76.25062       	75.41541       	80.37606       	77.899574      	77.758835      	77.36167       	77.00564       	76.11901       	76.57161       	76.40476       	76.08744       	76.814644      	76.32441       	76.46824       	76.21939       	76.47415       	76.13789       	76.40679       	76.18564       	76.78995       	76.32536       	76.2126        	76.30269       	76.447044      	76.41354       	76.33774       	76.3673        	76.395096      	76.47425       	76.41749       	76.00348       	76.90176       	76.0394        	76.453514      	76.27436       	76.19826       	76.22226       	76.80769       	75.9747        	77.03955       	75.1366        	75.42966       	73.60894       	72.01767       	73.98657       	76.18433       	76.46429       	76.28907       	76.29017       	76.46567       	76.336555      	76.258255      	76.154945      	76.28377       	76.649734      	76.3893        	76.24379       	76.47336       	76.26126       	76.28911       	76.42902       	76.05124       	76.311226      	76.19536       	75.8996        	77.3737        	79.31589       	77.540276      	77.57502       	77.17106       	77.199646      	76.09765       	76.23706       	76.109924      	76.10142       	76.06806       	76.62568       	
76.02535       	74.009094      	76.15511       	76.478645      	76.35855       	76.33789       	76.39261       	76.032005      	76.40091       	76.34117       	76.37851       	76.30989       	76.473114      	76.28507       	76.30152       	76.32027       	76.56573       	75.99781       	76.42248       	76.16812       	76.40352       	76.41118       	75.821526      	76.13405       	75.30945       	80.1602        	78.37512       	77.35402       	77.62614       	76.8694        	76.80545       	75.96913       	76.64645       	76.24311       	76.37818       	76.15797       	76.615166      	76.27079       	76.39834       	76.27443       	76.54565       	76.26409       	76.534035      	76.37255       	76.40493       	76.11074       	76.489975      	76.47555       	75.96449       	76.43789       	76.282425      	76.621376      	76.189735      	76.40551       	76.83265       	76.17934       	76.62631       	75.45197       	77.4315        	76.31592       	75.78289       	76.53392       	76.53363       	76.23355       	74.98859       	73.82186       	72.993225      	76.10426       	75.84506       	76.42569       	76.384766      	75.91623       	76.77401       	76.48733       	76.37597       	76.281235      	76.27718       	76.40874       	76.17038       	76.56287       	76.41813       	76.20037       	76.10535       	76.2489        	76.44287       	76.28755       	76.07034       	75.872604      	75.76887       	80.23955       	78.718735      	77.386086      	76.489975      	77.275055      	76.71288       	76.54843       	76.12347       	76.18862       	76.675224      	76.547905      	
75.49151       	75.08231       	72.42552       	75.27014       	76.63579       	76.18825       	76.28807       	75.86061       	76.67779       	76.45417       	76.51625       	76.17825       	76.14607       	76.490715      	76.241356      	76.271034      	76.62292       	76.33053       	76.19162       	76.473885      	76.263954      	76.33637       	76.05137       	76.29243       	75.14979       	78.39597       	80.411026      	77.44055       	77.27501       	77.37831       	76.32497       	75.699455      	77.26872       	75.797554      	76.90333       	76.12784       	76.33467       	76.28964       	76.6374        	76.343735      	76.411934      	76.2405        	76.37009       	76.44186       	76.20965       	76.347595      	76.68125       	76.144745      	76.45256       	76.058846      	76.4782        	76.48418       	76.27516       	76.358864      	76.1618        	76.47849       	75.87855       	77.72436       	77.27141       	75.38919       	76.15021       	77.07981       	75.5091        	76.31369       	75.21877       	73.59743       	73.29005       	75.47718       	76.471054      	76.407326      	76.23813       	76.53842       	76.02038       	76.89364       	76.10113       	76.230576      	76.42366       	76.37088       	76.384094      	76.39539       	76.293015      	76.52189       	75.94419       	76.43173       	76.397156      	75.920074      	76.67571       	76.348724      	75.61076       	77.825645      	79.59408       	77.69012       	77.55855       	77.20129       	76.790306      	76.005035      	76.50461       	76.074425      	76.294556      	76.82947       	
75.66047       	75.3872        	74.51849       	72.33304       	76.28223       	76.495056      	76.34562       	76.10084       	76.607475      	76.51629       	76.08197       	76.46912       	76.50498       	76.132286      	76.22143       	76.56022       	76.499466      	76.11551       	76.44311       	76.31364       	76.39158       	76.109         	76.14859       	76.480576      	75.59217       	76.71984       	79.816666      	78.33096       	77.72736       	77.12684       	76.70468       	77.024826      	76.090416      	76.13156       	76.16514       	76.42217       	76.44866       	76.07463       	76.495445      	76.46558       	76.501625      	75.978615      	76.8143        	76.52061       	75.88204       	76.23573       	76.86606       	76.00037       	76.84904       	76.31004       	76.23814       	76.163536      	76.682434      	76.1692        	76.67708       	76.317856      	76.44008       	76.67936       	76.35396       	76.46996       	75.80966       	76.330025      	76.74211       	74.761375      	75.59239       	75.40721       	71.66426       	73.97278       	76.277016      	76.70139       	75.96321       	76.292274      	76.41093       	76.61568       	76.23257       	76.10972       	76.620026      	76.0611        	76.21007       	76.55176       	76.505264      	76.21691       	76.459595      	76.094345      	76.17051       	76.42842       	76.23858       	76.053734      	75.661064      	77.69575       	79.542755      	78.171555      	77.11366       	77.30375       	76.87135       	76.17024       	76.174355      	76.12175       	77.03795       	77.38105       	
76.99392       	75.45024       	73.21725       	72.63957       	75.97957       	76.40808       	75.62767       	77.08128       	76.250565      	76.026375      	77.13002       	76.401566      	75.63724       	76.363464      	76.27893       	76.45836       	75.227455      	76.05548       	77.24342       	75.61176       	76.786415      	77.177734      	76.23792       	75.8727        	75.895065      	75.35709       	79.674065      	78.16866       	77.29305       	78.25548       	77.354904      	76.08133       	76.701385      	76.39904       	76.00407       	76.69175       	76.15064       	76.307304      	76.15007       	76.58347       	76.40964       	76.315796      	76.31412       	76.40722       	76.524475      	76.18188       	76.418564      	76.937775      	76.07378       	76.74638       	76.07064       	76.15363       	76.419846      	76.68199       	76.36367       	76.41539       	76.22329       	76.52911       	76.3922        	76.17956       	76.60974       	76.61886       	76.382126      	76.10264       	76.34006       	75.32526       	72.02972       	74.14986       	76.37677       	76.53125       	76.19458       	76.723854      	75.9913        	75.96131       	76.47332       	76.14937       	76.84006       	76.472206      	76.19636       	76.44889       	76.21675       	76.42996       	76.425766      	76.23704       	76.555435      	76.12892       	76.32463       	76.32112       	76.25738       	76.037         	80.571526      	77.69637       	77.13638       	77.11995       	76.93269       	76.461006      	76.46301       	76.047714      	75.870926      	76.138466      	
76.002         	75.32285       	74.86809       	72.98336       	73.2511        	76.8663        	76.37431       	75.86369       	76.8812        	76.18666       	75.31831       	77.61694       	76.01056       	75.92986       	77.24087       	76.17283       	76.22988       	75.46116       	77.30949       	76.500595      	75.72084       	76.6065        	76.22073       	76.289276      	76.15353       	75.62343       	76.80551       	79.39677       	78.78288       	77.68619       	76.05883       	77.3531        	77.25378       	75.19311       	76.55765       	76.373825      	76.11307       	76.511154      	76.26931       	76.605644      	76.04485       	76.371994      	76.459076      	76.598755      	76.3337        	76.24594       	76.57869       	76.23348       	76.35106       	76.4529        	76.34659       	76.43338       	76.22795       	76.43628       	76.25519       	76.09228       	76.94475       	76.46298       	75.49039       	77.19642       	76.31864       	76.072975      	77.11377       	75.715096      	76.65667       	75.70429       	72.9508        	73.10154       	75.7732        	76.71002       	75.97186       	76.45503       	76.22926       	76.5264        	76.33729       	76.45649       	76.319984      	76.07732       	76.59548       	76.27543       	76.40087       	76.29079       	76.33748       	76.18669       	76.44814       	76.47807       	76.219315      	76.183754      	76.10335       	76.34912       	78.70722       	78.87862       	77.404945      	77.594154      	77.02674       	76.0202        	76.05588       	76.51418       	76.84222       	76.429344      	
75.96904       	75.20124       	74.768845      	73.88789       	74.276375      	75.72298       	76.2506        	76.32914       	76.188805      	76.671394      	75.237595      	77.24105       	76.61546       	75.8343        	75.85336       	76.737785      	77.370316      	75.51758       	76.30418       	76.22925       	76.215         	76.87219       	75.93693       	76.02261       	76.15267       	75.99568       	76.07266       	80.717514      	78.43207       	77.52516       	77.31769       	76.4772        	76.36019       	76.31867       	76.54755       	76.27614       	76.64995       	76.43974       	76.14128       	76.47803       	76.34761       	76.27245       	76.283775      	76.505196      	76.18663       	76.10571       	76.966034      	75.7726        	76.742096      	76.49384       	76.203125      	76.111         	76.69831       	76.33937       	76.31896       	76.38165       	76.53196       	76.37283       	76.392525      	76.64816       	75.80711       	76.65126       	76.8414        	76.26266       	76.75264       	75.675995      	73.355354      	73.26325       	74.42855       	76.22547       	76.252495      	76.75991       	75.72249       	76.71387       	76.37289       	76.25132       	76.29897       	76.4555        	76.0923        	76.72376       	76.635086      	76.05005       	76.14406       	76.048935      	76.65806       	76.047005      	76.31135       	76.38407       	76.2421        	76.00981       	77.35234       	79.842735      	77.63883       	76.940636      	76.927025      	77.00591       	76.18843       	75.93173       	77.19404       	77.42132       	
76.02197       	76.46946       	75.28405       	72.866356      	70.931725      	75.947014      	76.58041       	76.646454      	76.09033       	76.08195       	76.84796       	75.78833       	76.01987       	77.01857       	76.262215      	76.0552        	76.148125      	76.91684       	75.75884       	76.34775       	76.564644      	76.271194      	76.20956       	76.24163       	76.47477       	76.18839       	75.30912       	79.775566      	78.711174      	77.29543       	77.99924       	76.64532       	77.25482       	75.513565      	76.66417       	76.13161       	76.38503       	76.21638       	76.73634       	76.141304      	76.333824      	76.73359       	76.07891       	76.261345      	76.502914      	76.31854       	76.585075      	76.03889       	76.613594      	76.438576      	76.13744       	76.29642       	76.45036       	76.51365       	76.5654        	75.92952       	76.86172       	76.02746       	75.921         	76.917145      	76.477776      	76.47188       	75.12607       	76.954865      	76.19051       	76.14786       	75.00229       	73.209816      	72.325584      	76.554985      	75.91472       	76.712204      	76.45955       	76.17344       	76.607956      	76.34797       	76.293495      	75.97884       	76.82296       	76.27328       	76.42495       	76.130455      	76.51982       	75.94498       	76.51496       	76.26949       	76.26822       	76.61105       	75.884346      	76.26725       	76.87858       	79.561165      	78.121414      	77.35357       	77.54433       	76.423164      	76.29066       	77.21473       	76.81236       	76.568115      	
76.23053       	76.204056      	75.896065      	73.598915      	71.72423       	74.63776       	76.49982       	76.41044       	76.30994       	76.66322       	75.63799       	76.14132       	76.222275      	76.372025      	76.996185      	76.671074      	74.86909       	77.352554      	76.06782       	76.298195      	76.03863       	76.54238       	76.25607       	76.09152       	76.71635       	75.73733       	76.01645       	77.82073       	79.39008       	77.8906        	77.80584       	76.85942       	76.13763       	76.53017       	76.33746       	76.64365       	76.19131       	76.3157        	76.16169       	76.182884      	76.87734       	76.464355      	76.19625       	76.49085       	75.682686      	76.98415       	76.20233       	76.11406       	76.55777       	76.35559       	76.18633       	76.38526       	76.476814      	76.35877       	76.43187       	76.26531       	76.088005      	76.92117       	76.3609        	76.139885      	76.80988       	76.085045      	76.533485      	76.354515      	76.12778       	76.032036      	74.28246       	73.67122       	72.48798       	76.35353       	76.28023       	76.088066      	76.76586       	76.112625      	76.627594      	76.0062        	77.02818       	75.962204      	76.179634      	76.18245       	76.880844      	76.23316       	76.268684      	76.327866      	76.491234      	76.39566       	75.95229       	76.335         	76.75106       	75.690796      	75.452614      	79.884384      	78.575905      	77.845436      	77.57928       	76.779366      	76.13151       	75.98583       	76.48788       	76.666824      	
76.40333       	76.65749       	76.12561       	73.53125       	72.97339       	75.53216       	76.22541       	76.60383       	76.43958       	76.21488       	76.608864      	76.316795      	76.26967       	76.61414       	75.97078       	76.76194       	76.27929       	76.45452       	76.06039       	76.15078       	76.328995      	75.99659       	76.98078       	75.84561       	76.63255       	76.09207       	75.74454       	77.79768       	78.90381       	77.60693       	78.222435      	76.983986      	75.98441       	75.13489       	77.03773       	77.41247       	76.64103       	74.8475        	77.65968       	76.50886       	75.91782       	76.33037       	76.57551       	76.344284      	76.37804       	75.9699        	76.66063       	76.46523       	76.32366       	76.32107       	76.169395      	76.42337       	76.51713       	76.36038       	76.40647       	76.35651       	76.05832       	76.82949       	76.45883       	76.183754      	76.67343       	76.150116      	76.27877       	76.71722       	75.3413        	77.18463       	75.342705      	72.99846       	70.76945       	75.77885       	76.39115       	76.271194      	76.034836      	76.7512        	76.17725       	76.39609       	76.12307       	76.60127       	76.352066      	76.35207       	75.6762        	77.36862       	76.40581       	76.023476      	76.6012        	76.08891       	76.27825       	76.23011       	76.385284      	76.5904        	75.38205       	79.01874       	78.8754        	77.91072       	77.57892       	76.65894       	76.949165      	77.175865      	76.52124       	76.13715       	
76.221535      	76.03931       	75.944115      	75.03379       	73.06451       	73.3439        	76.20897       	75.87368       	76.72753       	76.45991       	76.28235       	76.3661        	76.56025       	76.165184      	76.193924      	76.0548        	76.88568       	75.64526       	76.99051       	76.26537       	75.7819        	76.09528       	76.93297       	75.95889       	76.3693        	75.886246      	76.26154       	76.28051       	80.34043       	78.07335       	77.582466      	76.73514       	76.06418       	77.15535       	75.90249       	76.35744       	74.97599       	77.27537       	77.5167        	76.17825       	76.28598       	76.27018       	75.98845       	76.701645      	76.63325       	76.17202       	76.31331       	76.58906       	76.17755       	76.24212       	76.63408       	76.05403       	76.52869       	76.47344       	76.0935        	76.47489       	76.411415      	76.40844       	76.31986       	76.43851       	76.28755       	76.392044      	76.24213       	76.98795       	76.11447       	75.879845      	75.9239        	73.76848       	73.00283       	73.727325      	76.4068        	76.31188       	76.38773       	76.38824       	76.146355      	76.759026      	76.18732       	76.14575       	76.15925       	76.256615      	76.427895      	76.61578       	76.04282       	76.31072       	76.22816       	76.53342       	76.32289       	76.35426       	76.29057       	76.105995      	75.87418       	78.30285       	79.023705      	76.78756       	76.36612       	76.53649       	77.61115       	76.146454      	76.460594      	75.97022       	
76.003746      	76.11133       	76.7544        	75.19842       	73.35149       	72.723274      	76.122055      	76.87979       	75.96993       	76.4896        	76.19607       	76.3216        	76.54948       	76.43773       	76.44399       	76.34006       	76.45904       	76.09627       	76.957436      	75.69297       	76.49341       	76.14864       	76.22103       	76.30632       	76.394485      	76.06379       	75.979126      	76.10572       	80.384094      	77.55834       	77.37716       	77.22286       	76.52458       	77.392334      	75.85811       	76.69732       	76.56603       	75.8654        	76.28089       	76.36042       	76.507706      	76.21466       	76.4455        	76.48751       	76.514595      	76.168106      	76.27583       	76.529785      	76.22853       	76.24332       	76.09395       	76.741005      	76.48498       	76.0263        	76.505714      	76.286255      	76.473854      	76.26928       	76.502914      	76.303154      	76.39235       	76.500145      	76.03004       	77.05539       	76.18943       	76.3087        	76.43964       	73.69487       	73.14527       	74.24441       	76.48036       	76.37887       	76.72188       	76.16744       	76.27127       	76.68396       	76.27231       	76.56473       	76.42553       	76.11784       	76.33761       	76.379906      	76.42828       	76.03745       	76.280785      	76.1671        	76.569695      	76.44114       	76.15131       	76.398964      	75.62455       	77.9953        	77.78211       	76.4792        	78.224365      	77.86645       	76.72829       	76.54834       	76.490906      	75.36819       	
76.29345       	76.34884       	76.06007       	75.80748       	73.39484       	72.435356      	73.162224      	76.9135        	76.49954       	76.11963       	76.2405        	76.17607       	76.53811       	75.82523       	76.19873       	76.51473       	76.60399       	76.258255      	76.69262       	75.381294      	76.96884       	76.68066       	75.75634       	76.92439       	76.14423       	75.98338       	76.05236       	75.88702       	78.170204      	79.56157       	77.58234       	77.374245      	76.8722        	76.19914       	75.79009       	77.08992       	76.11218       	76.52575       	76.38614       	75.93979       	76.36154       	76.37445       	76.55997       	76.12962       	76.55048       	76.296646      	76.32699       	76.70551       	76.09732       	76.59945       	76.31552       	76.21073       	76.382996      	76.10371       	76.67539       	76.29          	76.47733       	76.215744      	76.248146      	76.463684      	76.276184      	76.34854       	76.28519       	76.46532       	75.95166       	77.196724      	76.36555       	75.67559       	72.76695       	70.70849       	75.65701       	76.35453       	76.358025      	76.60082       	76.11423       	76.360756      	76.45771       	76.314445      	76.162254      	76.57521       	75.958565      	76.52726       	76.487885      	75.9997        	76.509735      	76.2885        	76.2766        	76.30003       	76.21018       	76.17305       	75.79092       	76.4224        	77.465294      	77.48531       	78.28171       	77.48961       	76.526825      	75.74285       	75.38548       	75.10568       	
76.0468        	75.970764      	76.024956      	75.963036      	73.68449       	73.46979       	75.66788       	76.38231       	76.22408       	75.69796       	76.91639       	76.42343       	75.566154      	76.91247       	76.5882        	76.37376       	75.99095       	76.77191       	76.14662       	76.32301       	76.240295      	75.66561       	76.6145        	76.85796       	76.07906       	76.52752       	75.99249       	75.435974      	77.90097       	79.77923       	77.72813       	77.70375       	76.02348       	75.828354      	77.42801       	76.68942       	75.74085       	76.87144       	76.88595       	75.658936      	76.17584       	76.43334       	76.064026      	76.94562       	75.551476      	76.99588       	76.64023       	76.15672       	76.4046        	76.469925      	76.43097       	75.91271       	74.82222       	77.27871       	76.936676      	76.14873       	76.45106       	76.13637       	76.83956       	76.201         	76.31483       	76.372185      	76.12434       	76.589485      	76.67959       	75.64491       	76.557304      	75.87608       	73.0703        	71.927536      	73.80419       	76.48928       	76.15598       	76.52378       	76.125534      	76.29039       	76.75751       	76.36232       	75.77674       	76.72778       	76.4528        	76.271645      	76.62953       	76.224495      	76.39181       	76.000824      	76.453865      	76.519424      	75.98056       	76.62557       	75.94126       	76.31927       	75.49642       	77.46901       	78.296776      	77.48997       	76.36578       	74.94731       	73.95868       	74.14162       	
76.31835       	76.32391       	75.92923       	76.24243       	74.62771       	73.01099       	74.431854      	76.49783       	76.24551       	76.3475        	76.236015      	76.31082       	76.51785       	76.044785      	76.5278        	76.2481        	76.333916      	76.33346       	76.32452       	76.38861       	76.37461       	76.297195      	76.187996      	76.05611       	76.635345      	76.48554       	76.219604      	75.51341       	76.49751       	79.80975       	77.91296       	78.19          	77.14437       	76.40402       	76.709564      	76.35072       	76.07771       	76.502335      	76.59364       	76.27745       	76.1242        	75.52886       	77.52185       	76.62062       	75.79001       	76.55855       	76.2109        	76.51162       	76.52622       	75.909386      	76.401505      	76.18634       	76.55197       	76.59272       	76.04936       	76.83075       	76.20876       	76.26258       	76.87269       	76.22383       	76.3643        	76.69129       	75.972855      	76.41209       	76.601585      	75.87808       	76.29221       	75.63665       	74.94812       	72.44592       	73.1338        	76.30509       	76.61814       	76.61784       	76.281334      	75.66817       	76.87208       	76.18741       	76.5394        	76.03496       	76.70557       	76.42041       	76.22993       	76.17844       	76.452896      	76.17401       	76.39201       	76.65751       	76.01345       	76.270454      	76.30576       	76.875854      	76.164894      	76.14078       	75.97622       	77.35095       	76.58502       	75.61184       	76.562035      	76.4913        	
76.60169       	76.87138       	75.25024       	76.20386       	75.483986      	74.63537       	70.10294       	74.48861       	76.26109       	76.27725       	75.774315      	76.94778       	75.88485       	76.15045       	76.99888       	76.36623       	75.53846       	76.700325      	76.2831        	76.53161       	76.24934       	76.3923        	76.38306       	75.57966       	76.43189       	76.67539       	76.0236        	76.18923       	75.42506       	80.07487       	78.75809       	77.404396      	77.534515      	77.06748       	76.19635       	76.39632       	76.597984      	75.932144      	76.176895      	76.56933       	74.58836       	77.711685      	77.500015      	76.9436        	75.44564       	76.38461       	76.30104       	76.36499       	76.29297       	76.631386      	76.122986      	76.386444      	76.56768       	76.57025       	75.9537        	76.21446       	76.5566        	75.98002       	76.94291       	76.17121       	76.264565      	76.43606       	76.4952        	76.20173       	76.144585      	76.72647       	75.93652       	75.70134       	74.430115      	73.86127       	73.7161        	76.10549       	76.35776       	76.18743       	76.23419       	76.30076       	76.45238       	76.33794       	76.36715       	76.26107       	76.40123       	76.58615       	76.2018        	76.36825       	76.45564       	76.33669       	76.254616      	76.259224      	76.04399       	76.76913       	76.06324       	76.36126       	76.28397       	76.50488       	76.15252       	76.77088       	76.716934      	76.72851       	76.66525       	76.58743       	
76.57998       	76.30157       	75.83488       	74.95072       	75.94852       	74.273834      	73.53358       	75.722466      	76.43235       	76.250626      	76.42115       	76.08467       	76.66633       	76.02789       	76.19392       	76.74224       	76.00076       	76.481766      	76.52707       	76.16225       	76.67535       	76.16185       	76.20583       	76.28182       	76.40046       	76.34901       	76.563         	75.52394       	75.77751       	77.37328       	79.85001       	78.46703       	77.59529       	76.45643       	75.8182        	77.08681       	76.31341       	76.41896       	76.33723       	76.27225       	76.378975      	76.53657       	76.07444       	76.29572       	76.30111       	76.646324      	76.31081       	76.543976      	75.991         	76.51891       	76.288414      	76.595566      	76.3365        	76.691505      	76.02811       	76.36389       	76.32564       	76.35663       	76.657166      	76.28335       	76.01364       	76.568726      	76.2834        	76.60267       	76.12431       	76.31824       	76.55391       	76.27267       	74.57236       	74.98337       	72.91769       	75.479576      	76.16342       	76.197136      	76.57038       	76.25987       	76.03102       	76.70949       	76.48145       	75.91503       	76.81818       	76.3724        	76.228775      	76.666504      	76.02999       	76.552444      	76.222244      	76.370346      	76.41659       	75.65969       	76.87598       	76.48331       	76.136406      	76.000786      	76.3853        	76.35546       	77.30307       	76.59541       	77.20293       	76.60009       	
76.355606      	77.0942        	76.1024        	76.52819       	75.43332       	75.01777       	73.27641       	73.82044       	76.617256      	75.30524       	76.57288       	76.21213       	76.52763       	76.45112       	76.184906      	76.707695      	76.42445       	76.17435       	75.944984      	76.678635      	76.233536      	76.215164      	76.296074      	76.44563       	76.26244       	76.26456       	76.37509       	76.28349       	75.52882       	78.40773       	79.81435       	77.28132       	77.37664       	77.35242       	76.46013       	76.27282       	76.26231       	76.59225       	76.28261       	76.38862       	76.41681       	76.49652       	76.262566      	76.34835       	76.61251       	76.21719       	75.952545      	76.577644      	76.181335      	76.6561        	76.209854      	76.31141       	75.79484       	76.74871       	76.94027       	76.000305      	76.24599       	76.360596      	76.109146      	76.87707       	75.99626       	76.0261        	75.44541       	76.801575      	76.86209       	76.28313       	76.587776      	76.46223       	75.50489       	75.16683       	73.73826       	73.52669       	76.65725       	76.121605      	76.26883       	76.41899       	76.37544       	76.33697       	76.131775      	76.3065        	76.48478       	76.03586       	76.38449       	76.23236       	76.474174      	76.26246       	76.457664      	76.270096      	76.23335       	75.853485      	76.91669       	76.641266      	75.90311       	76.17807       	75.99403       	76.71212       	75.70251       	77.44695       	78.75171       	77.01176       	
76.026115      	76.62319       	75.71236       	76.56331       	75.350266      	75.13015       	74.149315      	73.93818       	76.06879       	76.55348       	76.07396       	76.51246       	76.31827       	76.35379       	76.27609       	76.27698       	76.439575      	76.41552       	76.21812       	76.359375      	76.48276       	76.173454      	76.11107       	76.5094        	76.310936      	76.24108       	76.29373       	76.23051       	75.729904      	77.26918       	79.271         	77.970955      	77.21899       	78.00014       	76.56492       	75.93355       	76.905624      	76.211395      	76.34275       	76.453606      	75.99185       	76.6409        	76.3663        	76.16547       	76.72397       	76.17262       	76.333565      	76.38535       	76.30933       	76.32216       	76.24453       	76.41623       	76.461555      	76.11416       	76.219475      	76.169975      	76.803535      	76.5776        	75.65977       	76.311554      	76.360756      	75.78078       	75.79318       	75.9101        	76.40119       	77.176254      	76.5395        	76.448044      	76.39865       	74.63005       	73.853355      	72.14612       	76.16722       	76.5121        	76.6525        	76.08815       	76.25872       	76.38461       	76.404594      	76.01878       	76.54465       	76.31355       	76.39091       	76.46852       	76.19015       	76.11807       	76.59601       	75.93084       	75.14902       	77.60502       	77.12191       	77.08576       	75.71463       	76.052414      	76.49531       	76.4738        	76.37702       	76.117065      	77.01126       	77.48353       	
76.26646       	76.43995       	76.62534       	76.0227        	76.20159       	75.81286       	72.97302       	73.88479       	76.41636       	76.22439       	76.59839       	75.86245       	76.216446      	76.408966      	76.415695      	76.48792       	76.45038       	76.02938       	76.354996      	76.287285      	76.336586      	76.377174      	76.199486      	76.54854       	75.35773       	76.168594      	77.04658       	76.66703       	75.807274      	75.57006       	80.50294       	77.81624       	77.826996      	77.55267       	76.61703       	76.295006      	76.374245      	76.55767       	76.20741       	76.4719        	76.20881       	76.194885      	76.79533       	76.210045      	76.221375      	76.76292       	75.91716       	76.55556       	76.43391       	76.69368       	76.03667       	76.6274        	75.98353       	77.03439       	75.743095      	76.92172       	76.47764       	75.295265      	75.74021       	75.838745      	74.79368       	77.02554       	76.13758       	75.22398       	76.285576      	76.50369       	76.47489       	76.67528       	74.64872       	75.77042       	73.944145      	75.84848       	76.34306       	76.54798       	76.00493       	76.60458       	76.20689       	76.65075       	76.12989       	76.54296       	76.088005      	76.54467       	76.06978       	76.522156      	76.62204       	75.99369       	76.583565      	76.34505       	76.32378       	75.93654       	76.9636        	76.07962       	76.57974       	76.425644      	76.20815       	76.24201       	76.14226       	76.448746      	77.055         	77.39963       	
76.47467       	75.93817       	76.82352       	76.34889       	76.239944      	75.12427       	73.78215       	72.79016       	74.45949       	76.577065      	75.949684      	76.31401       	76.43701       	76.19109       	76.19386       	76.62563       	76.09014       	76.3371        	76.3952        	76.477295      	76.562355      	76.37183       	76.15885       	76.40538       	76.28248       	76.371704      	76.22488       	76.284035      	76.1538        	75.37977       	79.160614      	79.24427       	77.194115      	77.77352       	76.50189       	76.42088       	76.37393       	76.77373       	75.96928       	76.74517       	76.20286       	76.27677       	76.47893       	76.07564       	76.76222       	76.341805      	76.26511       	75.89342       	76.39309       	76.77645       	76.01125       	76.36669       	75.79179       	76.77469       	76.06258       	75.27789       	75.94752       	75.25907       	76.85251       	75.158646      	75.7013        	76.11785       	76.09734       	75.57393       	76.17558       	76.453445      	77.18254       	76.097885      	75.72849       	74.03251       	76.21311       	76.39367       	76.30757       	76.353096      	76.36669       	76.57501       	76.396324      	76.59914       	76.0931        	76.17038       	76.52809       	76.47835       	75.88695       	76.34095       	76.64116       	76.47876       	76.17085       	76.26049       	76.328606      	76.44558       	76.4637        	76.3695        	76.32837       	76.117516      	76.18644       	76.43618       	76.70438       	76.45515       	76.19392       	76.431984      	
76.398735      	76.93061       	76.13162       	75.666794      	76.382256      	76.41053       	75.21446       	72.710815      	73.72947       	76.056564      	76.40798       	76.464096      	76.55796       	76.13678       	76.34968       	76.35842       	76.43235       	76.37806       	76.37943       	76.56824       	76.21862       	76.29082       	76.35238       	76.34637       	76.25042       	76.00168       	76.516106      	76.27544       	76.14977       	75.1179        	78.37702       	79.588066      	77.5861        	78.018715      	77.03754       	76.6454        	76.27727       	75.97836       	76.74045       	76.310745      	76.51072       	76.31252       	76.09332       	76.44508       	76.43922       	76.54174       	76.219315      	76.14688       	77.171455      	74.78324       	77.40069       	73.73881       	75.69903       	76.34856       	76.186966      	76.05335       	75.96523       	75.883575      	74.86671       	76.67177       	75.872314      	75.95188       	75.96752       	74.831955      	75.07443       	76.17068       	76.50075       	76.214714      	76.1835        	76.48305       	75.75966       	76.493         	76.43642       	76.169174      	76.291725      	76.487236      	76.47592       	76.2244        	76.71893       	76.1679        	76.28618       	76.38844       	76.3001        	76.45634       	76.570496      	76.25459       	76.32472       	76.33468       	76.41687       	76.326836      	76.17505       	76.3979        	76.33084       	76.474785      	76.3431        	76.03077       	76.33394       	76.66598       	76.46052       	76.61799       	
76.41132       	76.19487       	76.794754      	76.367775      	75.37029       	76.25433       	75.72678       	73.5263        	73.85072       	76.30924       	76.06278       	76.54284       	76.13302       	76.2933        	76.61558       	76.14816       	76.46532       	76.45602       	76.50402       	76.30731       	76.091896      	76.336         	76.499985      	76.174225      	76.39206       	76.25349       	76.16673       	76.346794      	75.87533       	75.84038       	76.73258       	80.387535      	77.22499       	77.96245       	77.402084      	76.83158       	75.962524      	76.627235      	75.41802       	76.86045       	76.66208       	76.60271       	76.13891       	76.523094      	76.011086      	75.97196       	75.94631       	75.79888       	75.34538       	76.41467       	76.57864       	75.521034      	75.45647       	77.10681       	75.57101       	75.50065       	75.887886      	75.55434       	76.2049        	75.37055       	74.918015      	76.66591       	76.07809       	76.618416      	76.19547       	76.11123       	76.507225      	76.45629       	76.054146      	76.454124      	76.39019       	76.173065      	76.47701       	76.11102       	76.5611        	76.32288       	76.38414       	76.1686        	76.48793       	76.40345       	76.48892       	76.49261       	76.382576      	76.18102       	76.34378       	76.40577       	76.42712       	76.449554      	76.25489       	76.361664      	76.22851       	76.67928       	76.26362       	76.42014       	76.14163       	76.42829       	76.20521       	76.71804       	76.60295       	76.34159       	
76.32591       	76.60278       	76.427         	76.30286       	76.374435      	76.36133       	75.51858       	73.27624       	72.2209        	75.575165      	76.227684      	75.87929       	76.200134      	76.76389       	76.435616      	76.302086      	76.26178       	76.60616       	76.41147       	76.00786       	76.337685      	76.45364       	76.06988       	76.31474       	76.31534       	76.2757        	76.39629       	76.553444      	76.07476       	75.829735      	76.41686       	80.333336      	77.58925       	76.85944       	77.82051       	76.75689       	76.02736       	76.25931       	76.34323       	76.36452       	75.99533       	75.78708       	76.13633       	76.63814       	76.20297       	74.78271       	75.80798       	76.26394       	75.97512       	76.640594      	74.39419       	75.81701       	75.89209       	75.97206       	74.835014      	76.273254      	74.8748        	76.69023       	75.83562       	75.84144       	76.448814      	76.96437       	76.46085       	76.55522       	76.06811       	76.52782       	76.07477       	76.48834       	75.89654       	76.097244      	76.3688        	76.45544       	76.673325      	76.43211       	76.31144       	75.98705       	76.54914       	75.95076       	76.54031       	76.68484       	76.206635      	76.29441       	75.977875      	76.88333       	76.599754      	76.01818       	76.22255       	76.41792       	76.73027       	76.494415      	76.15499       	76.423744      	76.28197       	76.433784      	76.360985      	76.433495      	76.31493       	76.21008       	76.40865       	77.20205       	
76.00098       	75.57658       	77.13009       	76.94332       	75.93849       	76.51566       	75.90626       	73.154465      	72.02933       	74.18353       	75.3256        	77.39004       	75.76957       	75.76288       	77.0626        	76.60887       	76.66774       	76.542         	76.13189       	76.11529       	76.60441       	76.264946      	76.377625      	76.310486      	76.36613       	76.13501       	76.53339       	75.96371       	76.35988       	76.395905      	75.0229        	80.412254      	77.45397       	77.46523       	76.88326       	76.553696      	75.96487       	78.07427       	76.07654       	76.400314      	75.781395      	74.51756       	76.58025       	76.97221       	75.53411       	75.36031       	75.68704       	75.69625       	76.39012       	75.02102       	75.092064      	75.04644       	75.99976       	76.011925      	76.47711       	76.55537       	76.29931       	75.9704        	76.71623       	76.13511       	76.48271       	76.44386       	76.41774       	76.34396       	76.33772       	76.32002       	76.45667       	76.20419       	75.949814      	76.6066        	75.8508        	76.62261       	76.69083       	76.232376      	76.43712       	76.26408       	76.496826      	76.2861        	76.37245       	76.43257       	75.94308       	76.525696      	76.38427       	76.20422       	76.38854       	76.50923       	76.29298       	76.38889       	76.30914       	76.29463       	76.637665      	76.19348       	76.45501       	76.26191       	75.31278       	76.60363       	76.865845      	76.97541       	76.33486       	77.06765       	
76.097626      	76.08178       	77.153076      	76.557304      	75.946846      	76.278175      	75.529495      	73.92418       	73.119385      	74.337906      	76.63121       	74.97087       	77.265976      	76.32637       	76.65093       	76.12032       	76.45185       	76.32373       	76.38738       	76.20459       	76.14327       	76.685455      	76.070786      	76.42286       	76.37064       	76.53429       	75.92503       	76.158165      	76.36325       	76.24152       	76.248764      	77.353264      	78.41553       	77.005615      	76.96548       	77.1827        	76.54383       	76.581116      	76.07592       	76.17185       	76.18452       	75.31101       	75.749725      	76.59476       	75.68435       	75.10985       	75.567444      	75.00717       	76.078354      	76.50828       	76.482         	76.42312       	76.36945       	76.26268       	76.41468       	76.33208       	76.14464       	76.29161       	76.68482       	76.04296       	76.513565      	76.120476      	76.42378       	75.97554       	76.42933       	76.28648       	76.140076      	76.98135       	75.99091       	76.38126       	76.01521       	77.26303       	75.94632       	76.49477       	76.11538       	76.58398       	76.1591        	76.38339       	76.43126       	76.39739       	76.13173       	76.24441       	76.44766       	76.66739       	76.31581       	76.284355      	76.19812       	76.60519       	75.41715       	76.766205      	76.48927       	76.69802       	76.64102       	76.34327       	76.06583       	76.04104       	76.2061        	76.371925      	76.516655      	77.26404       	
76.15891       	76.89959       	76.53034       	76.235634      	76.80526       	76.18965       	76.17786       	75.47163       	72.45543       	71.7503        	76.60093       	76.17895       	76.313354      	76.45654       	76.15084       	76.30147       	76.71726       	76.309235      	76.08275       	76.647156      	76.323265      	76.16055       	76.226         	76.03579       	76.86067       	76.61392       	76.212845      	76.342834      	76.36047       	76.05952       	76.02227       	75.73924       	78.790184      	76.05445       	78.10038       	77.63295       	75.84387       	76.223564      	75.908356      	76.1353        	76.19784       	75.98446       	75.8344        	76.223816      	74.94321       	76.46846       	76.54129       	76.23807       	76.12078       	76.541306      	76.389114      	76.206085      	76.49205       	76.27518       	76.30257       	76.56196       	76.4638        	76.16226       	76.60969       	76.26702       	76.38403       	76.20232       	76.7484        	76.185684      	76.13333       	76.536835      	76.01438       	76.41276       	76.54367       	74.673546      	77.37953       	76.94034       	76.00988       	76.788666      	75.94564       	76.375175      	76.64141       	76.21015       	76.47976       	76.21046       	76.45964       	76.31702       	76.31478       	76.58896       	76.00051       	76.271576      	76.61893       	76.232574      	76.13071       	76.52671       	76.323555      	76.36845       	76.43979       	76.16108       	76.20894       	76.35474       	76.488716      	76.14846       	76.36162       	77.28762       	
76.11598       	76.623474      	76.52862       	76.23222       	76.690765      	75.989365      	76.06968       	74.889275      	73.30929       	73.62417       	76.181         	76.116035      	76.305534      	76.624214      	75.99571       	76.192314      	76.43807       	76.42815       	76.521385      	76.259865      	76.27321       	76.42217       	76.29946       	76.00328       	76.669304      	76.19975       	76.28184       	76.393196      	76.48939       	76.14113       	76.04194       	76.71502       	75.45178       	77.89355       	77.83667       	77.43872       	75.774704      	75.81432       	75.10167       	76.27658       	76.232         	76.47667       	76.13806       	76.612114      	75.998245      	76.82106       	76.182915      	76.32248       	76.472855      	76.25413       	76.50025       	76.44181       	76.25412       	76.4954        	76.24854       	76.2015        	76.368454      	76.53164       	76.38401       	76.40365       	76.103         	76.461075      	76.300804      	76.26109       	76.47677       	76.3805        	76.5706        	76.23518       	76.470215      	76.31849       	75.916824      	76.46664       	76.15665       	76.45696       	76.22757       	76.603         	76.30828       	76.19098       	76.42039       	76.296684      	76.40897       	76.51975       	76.268616      	76.57698       	76.02672       	76.48779       	76.569984      	75.98135       	76.50702       	76.58996       	75.76974       	76.0441        	76.962006      	76.61269       	76.07545       	76.5148        	76.24315       	76.27917       	76.008995      	76.72017       	
76.399124      	76.547585      	76.43735       	76.1656        	76.39482       	75.95576       	77.04229       	74.20556       	74.502304      	73.34109       	74.64205       	76.96855       	76.02757       	76.499855      	76.0945        	76.27173       	76.29598       	76.48098       	76.28886       	76.571335      	76.10748       	76.93082       	75.88851       	76.60271       	76.31041       	76.281654      	76.29999       	76.75753       	76.32535       	76.27943       	75.81723       	76.74469       	75.889206      	76.8157        	76.564445      	76.0394        	76.95843       	76.10417       	76.0642        	76.6632        	76.41848       	76.49575       	76.14043       	76.32427       	76.37512       	76.45194       	76.14347       	76.538216      	76.05303       	76.30747       	76.33173       	76.69599       	76.44413       	75.77665       	76.58716       	76.203384      	76.67754       	76.06465       	76.47879       	76.17695       	76.814384      	76.065285      	76.307625      	76.847946      	76.35515       	75.900925      	76.69657       	76.4316        	76.47002       	76.30825       	76.090935      	76.57807       	75.404755      	77.02746       	76.39395       	75.66454       	76.98009       	76.40857       	76.13772       	76.43572       	76.56856       	76.256065      	76.07481       	76.55231       	76.258965      	76.19665       	76.42626       	76.3105        	76.24007       	76.51376       	76.36292       	76.32019       	76.672554      	76.04058       	76.43712       	75.72806       	75.84707       	76.222664      	76.85349       	77.268074      	
76.19212       	76.310616      	76.71567       	76.008865      	76.25104       	76.71555       	76.4056        	76.124084      	75.17577       	72.87047       	74.17783       	76.577484      	76.079216      	76.71184       	76.14981       	75.90333       	76.718216      	76.41762       	76.127945      	76.14132       	76.4942        	76.66679       	76.26177       	76.125206      	76.46269       	76.29137       	76.35617       	76.616486      	75.38946       	77.05898       	76.08941       	76.66416       	75.909615      	76.4951        	76.602585      	76.69065       	76.55853       	76.25235       	76.487206      	76.13616       	76.588165      	76.40068       	76.24454       	76.48553       	76.33064       	76.15232       	76.50708       	76.2054        	76.59415       	76.16078       	76.16709       	76.51162       	76.54414       	76.24738       	76.11221       	76.579         	76.3398        	76.416115      	76.41548       	76.21153       	76.16003       	76.493385      	76.481094      	76.07996       	76.44447       	76.37812       	76.48096       	76.48673       	76.24434       	76.338455      	76.27505       	75.91487       	76.33249       	76.4008        	76.35458       	76.3835        	76.65346       	76.15849       	76.3223        	76.37888       	76.72622       	76.35367       	76.600746      	75.851776      	76.48264       	76.12136       	76.49608       	76.157776      	76.628174      	76.15376       	76.60964       	76.31758       	76.263626      	76.5348        	75.80237       	76.079155      	76.07276       	76.07765       	76.6405        	77.91212       	
76.3537        	76.40157       	75.990845      	76.65277       	75.96592       	75.830696      	76.90338       	76.66192       	75.13211       	73.501785      	71.42577       	73.57048       	76.5521        	76.296616      	76.276344      	76.4599        	76.24999       	75.89802       	76.56957       	76.272964      	76.40523       	76.579895      	75.956566      	76.52456       	75.98589       	76.71527       	75.99808       	76.573006      	76.55019       	76.042725      	76.54707       	76.4499        	76.27889       	76.1998        	76.55454       	76.21282       	76.73233       	76.28382       	76.38456       	76.35239       	76.35431       	76.486565      	76.2675        	76.16689       	76.7071        	76.313934      	76.17978       	76.56778       	76.48057       	76.326675      	76.458916      	76.28936       	76.32424       	76.081055      	76.50009       	76.496086      	76.497665      	76.386246      	76.19286       	76.52499       	76.31484       	76.50557       	76.12531       	75.805         	77.02746       	76.23346       	76.459984      	76.58165       	76.14795       	76.35008       	76.15334       	76.36039       	76.52338       	76.31127       	76.18558       	76.21084       	76.52775       	76.306076      	76.26712       	75.968185      	76.50349       	76.54381       	76.11628       	76.43677       	76.239235      	76.59936       	76.221054      	76.14161       	76.88025       	76.334625      	76.12531       	75.91916       	76.64013       	76.29412       	76.055916      	76.31609       	76.42268       	76.20701       	76.63089       	77.50788       	
75.79639       	76.73213       	76.16684       	76.55755       	76.41261       	76.428505      	76.052376      	76.45155       	75.461784      	73.612144      	72.71545       	75.15862       	76.45033       	76.26628       	76.2129        	76.70465       	76.0146        	76.58322       	76.19939       	76.5964        	76.351074      	76.49829       	76.09329       	76.42505       	76.243454      	76.67886       	76.06396       	76.29317       	76.41806       	76.42227       	76.25113       	76.53768       	76.23483       	76.06745       	76.6206        	76.47278       	76.57886       	76.13403       	76.458534      	76.22331       	76.52145       	76.433464      	76.50405       	76.38942       	76.282745      	76.483536      	76.360916      	76.240616      	76.345184      	76.29413       	76.51979       	76.28213       	76.07499       	76.7159        	76.384476      	76.14871       	76.592834      	76.297104      	76.445946      	76.07853       	76.48513       	76.417076      	76.258736      	76.149155      	76.34631       	76.83514       	75.91846       	76.680595      	76.40231       	76.254295      	76.60232       	75.66978       	76.643074      	76.20846       	76.30393       	76.38955       	76.287674      	76.44104       	76.362686      	76.11351       	76.89234       	76.15642       	76.255486      	75.87819       	76.82824       	76.3185        	76.40855       	75.961525      	76.71203       	76.1272        	76.47317       	76.371796      	76.64058       	76.20551       	76.15082       	76.068596      	76.31406       	76.1129        	76.69922       	77.17493       	
76.32262       	76.49807       	76.465416      	76.40559       	75.83123       	76.13415       	76.42427       	75.99451       	76.53097       	74.08908       	73.454124      	75.22485       	76.021675      	76.56251       	76.49491       	76.139656      	76.62065       	76.22309       	76.44965       	76.19944       	76.269196      	76.53842       	76.6084        	76.1454        	76.31194       	76.49191       	76.39956       	76.48547       	76.35143       	76.63566       	76.271         	76.0329        	76.72476       	76.44506       	76.24288       	76.69695       	76.42986       	76.3603        	76.23435       	76.60234       	76.044716      	76.23925       	76.75029       	76.43283       	76.3886        	76.20921       	76.40175       	75.998634      	76.54214       	76.34373       	76.2092        	76.377235      	76.427956      	76.21613       	76.65344       	76.40556       	76.357765      	76.212074      	76.50394       	76.36422       	76.0403        	76.5899        	76.37598       	76.10963       	76.556625      	76.15312       	76.4697        	76.47735       	76.39798       	76.03266       	76.353714      	76.67783       	76.23299       	76.45266       	76.26789       	75.91345       	76.755424      	76.17912       	76.353264      	76.46497       	75.71551       	76.703156      	76.622475      	76.50086       	76.06684       	76.34161       	76.80452       	75.73882       	76.89883       	76.20941       	76.50907       	76.060776      	76.43454       	76.23347       	76.32298       	76.03476       	76.33552       	76.1086        	76.3062        	76.506424      	
76.119446      	76.73037       	75.80034       	76.10515       	75.802055      	76.70686       	75.98122       	75.073685      	75.98186       	76.109566      	73.46039       	75.60662       	76.89649       	76.23951       	76.247086      	76.27947       	76.239586      	76.47233       	76.301056      	76.21486       	76.32261       	75.96569       	76.832855      	76.52449       	76.383736      	76.36109       	76.63092       	75.740105      	76.9247        	76.53333       	76.37703       	76.45063       	76.305725      	76.27149       	75.52496       	76.72283       	76.88753       	76.64334       	76.19939       	76.35873       	76.46671       	75.64651       	76.81881       	76.63685       	75.94812       	76.700066      	76.21327       	76.269844      	76.11463       	76.67597       	76.45516       	76.125854      	76.37844       	76.533875      	76.48345       	76.29106       	76.58929       	76.162         	76.216415      	76.33517       	76.6372        	76.32413       	76.17955       	76.34839       	76.222626      	76.65807       	76.368355      	76.49713       	76.55819       	76.135         	76.200455      	76.11424       	76.52184       	76.346245      	76.05117       	76.384445      	76.22157       	76.372765      	75.994225      	76.80164       	76.27054       	76.1415        	76.29524       	76.57964       	76.43126       	76.344284      	76.158745      	76.415215      	76.301254      	76.647675      	76.193245      	76.55552       	76.18121       	76.02775       	76.50099       	75.91573       	76.71042       	76.44035       	76.02232       	76.32208       	
76.65534       	75.530556      	76.628975      	75.9597        	75.48916       	76.59248       	75.55636       	75.33561       	75.5325        	75.501976      	75.47372       	76.58719       	76.1926        	76.17022       	76.636795      	76.3297        	76.332016      	76.22652       	76.25707       	76.7323        	75.96693       	76.46301       	76.22093       	76.398544      	76.50565       	76.25795       	76.37048       	76.52618       	76.02339       	76.50347       	76.18933       	76.47954       	76.128876      	76.65912       	76.77419       	75.49171       	76.768585      	76.68487       	76.247116      	76.27706       	76.16672       	76.817116      	76.36243       	75.95344       	76.4977        	76.22575       	76.37469       	76.23556       	76.38768       	76.73953       	76.33175       	76.29655       	76.347664      	76.34773       	76.35711       	76.458305      	76.26691       	76.2136        	76.5849        	76.38869       	76.59626       	76.121666      	76.17727       	76.35126       	76.514404      	76.22654       	76.51022       	76.556244      	76.12992       	76.6211        	76.294914      	76.57436       	76.16996       	76.12234       	75.94453       	76.6715        	76.38619       	76.01666       	76.55599       	76.44308       	76.44983       	76.26276       	76.3477        	76.5415        	76.043686      	76.65169       	75.977486      	76.48603       	76.583626      	76.44813       	76.21184       	76.40489       	76.29746       	76.29432       	76.23913       	76.37162       	76.51585       	76.09084       	76.00518       	76.29259       	
76.5857        	75.575356      	75.925606      	75.39928       	75.7292        	74.3426        	76.17883       	76.52025       	76.01115       	76.562904      	76.14323       	76.18775       	76.50523       	76.16219       	76.689445      	76.373024      	76.190575      	76.43045       	76.341156      	76.43195       	76.32983       	76.25038       	76.54964       	75.97881       	75.96579       	76.687065      	76.567535      	76.22905       	76.315834      	76.41478       	76.37895       	76.454124      	76.31335       	76.42006       	76.15501       	76.84787       	75.68741       	77.359146      	75.87572       	76.55344       	76.46788       	76.14747       	76.36378       	76.30798       	76.35671       	76.54438       	76.252815      	76.21136       	76.52155       	76.541985      	76.053734      	76.42335       	76.47603       	76.22916       	76.34084       	76.50007       	76.30778       	76.353874      	76.50554       	76.562225      	76.12665       	76.25025       	76.5977        	75.977615      	76.781944      	76.55          	76.532166      	76.12691       	76.035286      	76.63563       	76.46089       	76.148026      	76.30462       	76.36927       	76.076035      	76.34839       	76.4398        	76.44837       	76.64516       	76.16579       	76.04472       	76.774826      	76.25623       	76.2351        	76.61712       	75.94702       	76.61949       	76.224846      	76.265465      	76.455696      	76.35999       	76.50352       	76.38365       	76.33159       	76.283775      	76.344124      	76.22755       	76.11971       	76.10126       	76.45177       	
76.27835       	74.897934      	75.49584       	76.901825      	75.94287       	75.895454      	76.9274        	76.43526       	76.112274      	76.32537       	76.586525      	76.03566       	75.62658       	77.07836       	76.20658       	76.59157       	76.15687       	76.50817       	76.22155       	76.53124       	76.13431       	76.62032       	76.4427        	76.1859        	76.502304      	76.04949       	76.376526      	76.81178       	76.26687       	76.124504      	76.40067       	76.40073       	76.34342       	76.34102       	76.366066      	76.35018       	76.41032       	76.39753       	76.455414      	76.39409       	76.22279       	76.51678       	76.37893       	76.2649        	76.617836      	76.51462       	76.10002       	76.37972       	76.272835      	76.364944      	76.61596       	76.20491       	76.23877       	76.53173       	76.40917       	76.318794      	76.3903        	76.33048       	76.17904       	76.64292       	76.36904       	76.374855      	76.17164       	76.397064      	76.69622       	76.37074       	76.02823       	76.53891       	76.21911       	76.23944       	76.49416       	76.39614       	76.205315      	76.20621       	76.33678       	76.25456       	76.48967       	76.35785       	76.32827       	76.290115      	76.16398       	76.698784      	76.2343        	76.47675       	76.24508       	76.339066      	76.528786      	76.22373       	76.51442       	76.33389       	76.56653       	76.29223       	76.31356       	76.34556       	75.970535      	76.574         	76.00015       	76.40761       	76.76629       	76.10724       	
75.453735      	76.92833       	75.89043       	76.4833        	76.25067       	76.225525      	76.46786       	76.31477       	76.388214      	75.99679       	75.889824      	76.47223       	76.86042       	76.41741       	76.72737       	75.87771       	76.34491       	76.4819        	76.50453       	75.96339       	76.523766      	76.63552       	75.97057       	76.30564       	76.664856      	76.35538       	76.32872       	76.04568       	76.74961       	76.39632       	76.16693       	76.3243        	76.47829       	76.288         	76.568756      	75.85375       	76.841385      	76.334076      	76.60277       	76.47391       	76.37245       	76.11506       	76.43275       	76.47193       	76.224655      	76.53215       	76.49048       	76.280815      	76.06932       	76.331505      	76.41333       	76.330025      	76.46523       	76.52657       	76.40939       	76.05094       	76.54286       	76.11679       	76.70052       	76.2124        	76.37205       	76.35739       	76.296005      	76.60832       	76.44426       	76.17835       	76.309364      	76.59432       	76.09656       	76.14078       	76.60912       	76.55115       	76.01147       	76.3575        	76.38401       	76.15703       	76.64293       	76.30928       	76.34276       	76.13413       	76.64502       	76.36047       	76.44685       	76.41403       	76.34661       	76.283264      	76.27514       	76.434074      	75.87559       	76.88124       	76.32736       	76.43919       	76.19423       	76.412895      	76.30023       	76.33909       	76.3629        	75.78472       	76.46005       	76.5835        	
76.563774      	76.15817       	76.28938       	75.79473       	76.903496      	76.408646      	76.25888       	76.39138       	76.30866       	76.32451       	76.33897       	76.265884      	76.296745      	76.59858       	76.23235       	76.42207       	76.31392       	76.299         	76.37518       	76.26913       	76.546234      	76.18955       	76.50932       	76.14467       	76.83459       	75.8611        	76.595955      	76.36402       	76.0779        	76.37829       	76.402885      	76.55324       	76.563545      	75.96801       	76.469505      	76.61246       	76.177155      	76.426056      	76.665184      	76.23553       	76.3445        	76.60722       	76.48751       	76.24516       	76.25738       	76.58769       	76.55907       	76.02365       	76.292465      	76.33542       	76.43841       	76.3917        	76.08128       	76.58947       	76.65232       	76.125824      	76.27984       	76.4472        	76.35048       	76.19537       	76.51462       	76.28226       	76.62162       	75.96359       	76.29468       	76.34929       	76.32376       	76.40805       	76.189644      	76.47498       	76.464714      	76.28792       	76.31877       	76.15621       	76.534294      	76.089775      	76.199         	76.72303       	76.20596       	76.264015      	76.44113       	76.308685      	76.59646       	76.07946       	76.30972       	76.36052       	76.18573       	76.535126      	76.390594      	76.57205       	76.2487        	76.297264      	76.27151       	76.35519       	76.18574       	76.3182        	76.34523       	75.89639       	75.94949       	76.55055       	
76.62617       	76.55668       	75.953476      	76.412796      	76.5655        	76.11628       	76.31636       	76.524025      	76.15357       	76.37066       	76.24373       	76.30208       	75.99248       	77.02345       	75.85408       	76.6649        	75.993935      	76.36236       	76.55601       	76.35225       	76.40761       	76.1632        	76.50249       	76.20969       	76.299355      	76.501915      	76.277016      	76.515976      	76.40674       	76.387634      	76.291885      	76.41273       	76.420494      	76.52325       	76.40423       	76.01287       	76.33319       	76.53039       	76.76226       	76.227295      	75.93066       	76.703896      	75.63714       	77.48756       	77.03472       	75.85577       	75.9353        	76.15411       	76.37611       	76.45225       	76.51463       	76.252464      	76.08335       	76.437775      	76.54009       	76.316284      	76.461426      	76.41961       	76.28173       	76.34583       	76.44251       	76.3087        	75.84021       	76.694695      	76.45356       	76.23514       	76.43618       	76.43891       	76.53767       	76.185196      	76.52403       	76.40774       	76.55882       	76.20034       	76.17311       	76.05533       	76.496704      	76.23486       	76.299484      	76.46462       	75.92298       	76.52326       	76.433395      	76.32735       	76.60436       	75.72617       	76.98914       	76.11835       	76.63649       	76.53649       	76.041916      	76.52248       	75.89647       	76.145065      	76.46663       	76.22511       	75.97131       	75.96503       	78.92465       	81.87574       	
76.49224       	76.40778       	76.37088       	76.38287       	76.25956       	76.22278       	76.227036      	76.56006       	76.35169       	75.98658       	76.41062       	76.28818       	76.44828       	76.43361       	76.13161       	76.5819        	76.292404      	76.111946      	76.6284        	76.1629        	76.54996       	76.143005      	76.30504       	76.4695        	76.29933       	76.091644      	76.70815       	76.2506        	76.50692       	76.37033       	76.511444      	76.31093       	76.12483       	76.1493        	76.65065       	76.243576      	76.32297       	76.02198       	76.947235      	74.843475      	77.278275      	76.59482       	76.145065      	77.0338        	76.76219       	75.41117       	76.53709       	76.56          	76.33901       	76.734604      	76.11493       	76.1734        	76.24377       	76.37154       	76.36389       	76.47354       	76.456375      	76.2076        	76.40345       	76.66449       	76.20703       	76.33939       	76.09346       	76.66305       	76.35916       	76.24677       	76.467064      	76.48898       	76.03169       	76.34632       	76.743904      	76.08858       	76.19253       	76.3348        	76.265465      	76.04175       	76.2013        	76.363106      	76.44573       	75.72246       	76.67044       	76.30836       	76.44037       	76.44703       	76.23374       	76.58552       	76.00367       	76.16946       	76.768654      	76.31366       	76.00412       	76.82129       	76.26386       	75.80975       	76.12137       	76.322556      	75.612595      	78.0016        	81.67662       	81.977394      	
76.31588       	76.48178       	76.13458       	76.32623       	76.36721       	76.447525      	76.43798       	75.92778       	76.66588       	76.54855       	75.93332       	76.356064      	76.4174        	75.967415      	76.70277       	76.37065       	75.74322       	76.849045      	76.40742       	76.332596      	76.556915      	76.1506        	76.42525       	76.66859       	75.92215       	76.55942       	76.29121       	76.16899       	76.54414       	76.35578       	76.27571       	76.28147       	76.62784       	76.188416      	76.29526       	76.58428       	76.45634       	76.14632       	76.87222       	76.36639       	76.20917       	76.56531       	76.02276       	76.4396        	76.39952       	76.47395       	76.11545       	76.551926      	76.50497       	76.10477       	76.36443       	76.66415       	75.77171       	76.877304      	76.43978       	76.316154      	76.12954       	76.17548       	76.39773       	76.47749       	76.26267       	76.58259       	76.25673       	76.226494      	76.40211       	76.37123       	76.26855       	76.741516      	76.040115      	76.4278        	76.70892       	75.71066       	76.65602       	76.4243        	75.71277       	76.75594       	76.15597       	76.620415      	75.78935       	76.66044       	76.66424       	76.224045      	75.81681       	76.67468       	76.54066       	75.88757       	76.5644        	76.43416       	76.44627       	76.22137       	76.61829       	76.38358       	76.57281       	75.48277       	76.20998       	76.5857        	75.52802       	78.081024      	81.57858       	81.51973       	
75.790184      	76.78439       	75.702194      	76.442154      	76.70883       	76.26441       	76.60413       	76.233025      	76.56674       	76.19399       	76.26835       	76.33156       	76.15614       	76.11944       	76.48077       	76.664894      	76.10113       	76.641685      	76.19826       	76.34833       	76.23154       	76.91353       	75.89394       	76.552605      	76.09011       	76.48067       	76.55806       	76.50671       	75.97861       	76.2698        	76.62232       	76.41214       	76.250854      	76.76484       	76.1631        	76.19533       	76.46469       	76.10393       	76.811005      	76.51582       	76.43599       	76.18629       	76.58196       	76.21288       	76.37827       	76.39108       	76.16336       	76.33957       	76.4634        	76.050896      	76.51514       	76.050934      	76.79624       	76.33227       	76.16792       	76.44088       	76.24032       	76.59669       	76.02835       	76.59776       	76.32251       	76.12724       	76.48073       	76.38505       	76.39031       	76.219666      	76.35261       	76.63479       	76.30582       	76.204346      	76.23813       	76.380104      	76.45666       	76.2342        	76.32485       	76.449295      	76.38513       	76.51061       	76.31193       	76.23647       	76.090996      	76.60261       	76.42313       	76.500755      	76.27956       	75.92568       	76.716446      	76.496315      	75.99764       	76.56295       	76.24871       	76.30552       	76.33136       	75.992836      	76.39695       	76.1002        	75.75585       	77.449         	80.13773       	82.145164      	
76.16705       	76.343376      	76.62997       	76.06251       	76.58926       	76.50532       	76.244156      	76.46764       	76.636894      	76.08595       	76.215515      	75.659904      	76.60748       	76.33141       	76.49211       	76.34417       	76.17163       	76.13247       	76.72294       	75.99704       	76.63273       	76.3434        	76.61314       	76.26672       	75.99174       	76.67312       	76.30608       	76.32786       	76.01666       	76.84875       	76.60356       	75.94542       	76.63561       	76.3654        	76.40157       	76.304726      	76.38614       	76.22769       	76.4948        	76.71956       	76.41711       	76.08671       	76.41282       	76.387924      	76.38872       	76.25774       	75.986244      	76.78098       	76.38837       	76.039215      	76.60858       	76.162346      	76.8552        	76.10379       	76.53765       	76.2658        	76.31711       	76.29561       	76.32041       	76.05996       	76.81761       	76.28526       	76.04954       	76.60262       	76.38839       	76.468704      	76.25164       	76.19107       	77.02612       	75.74848       	75.83701       	77.08039       	76.7491        	75.96823       	76.088104      	76.21402       	76.230705      	75.82118       	76.844635      	76.21919       	76.34448       	76.9093        	76.24647       	76.41469       	75.904785      	76.60767       	76.60475       	75.82575       	76.43891       	76.46129       	76.34696       	76.303856      	76.07653       	76.75934       	76.29396       	75.76322       	75.58076       	76.78247       	79.64556       	81.74792       	
76.37941       	76.3156        	76.283264      	76.45493       	76.546585      	76.06573       	76.378555      	76.201126      	76.78408       	76.148254      	75.58654       	77.02474       	76.294945      	75.99952       	76.63636       	76.370415      	76.26756       	76.20761       	76.67385       	76.40306       	76.10893       	76.1418        	76.62776       	76.28513       	76.64005       	76.167046      	76.240585      	76.39256       	76.358055      	76.46397       	76.028824      	76.20191       	76.29498       	76.63761       	76.40939       	76.33276       	76.48368       	76.32447       	76.4619        	76.06894       	76.89317       	76.40634       	76.29554       	76.41874       	76.46658       	76.037125      	75.356804      	77.14041       	76.92536       	75.964226      	76.16413       	76.74945       	76.482         	76.23769       	76.40513       	76.161255      	76.33911       	76.166794      	76.04512       	76.61089       	76.454666      	76.34109       	76.264946      	76.26316       	76.31796       	76.46741       	75.87573       	76.20354       	76.453766      	76.748825      	76.22511       	76.047356      	76.27677       	76.318405      	76.334915      	76.38171       	76.31457       	76.31942       	76.48542       	76.27005       	76.38742       	76.51804       	76.280594      	76.17875       	76.279144      	76.37734       	76.29395       	76.27586       	76.36038       	76.41774       	76.47833       	76.243355      	76.34559       	76.18086       	76.182526      	76.474396      	75.95956       	76.53191       	79.62058       	81.49952       	
76.353386      	76.36002       	76.46237       	76.363976      	76.29673       	76.399796      	76.41975       	76.01025       	76.60875       	76.42695       	76.24168       	76.21472       	76.359146      	76.265465      	76.29042       	76.48198       	76.4303        	76.2628        	76.39976       	76.40494       	76.333435      	76.07453       	76.51769       	76.35981       	76.13956       	76.68523       	76.24622       	76.38133       	76.0268        	76.566795      	76.36822       	76.20819       	76.60513       	76.363815      	76.19945       	76.395386      	76.32828       	76.403076      	76.324036      	76.65643       	76.49404       	76.33952       	76.47626       	76.195595      	76.45522       	76.28451       	76.52027       	76.31777       	76.28827       	76.31247       	76.46324       	76.21419       	76.52162       	76.14703       	76.483986      	76.26948       	76.259865      	76.38276       	76.29651       	76.48394       	76.36292       	76.16185       	76.74347       	76.46669       	76.31945       	76.29551       	76.34666       	76.160805      	76.16871       	75.77068       	76.9573        	78.542076      	76.831665      	76.38709       	75.79185       	75.11618       	75.80673       	71.007484      	76.16852       	76.61132       	76.47179       	76.08221       	76.451805      	76.17177       	76.13557       	76.66521       	76.41909       	76.34673       	76.42156       	76.12685       	76.50498       	76.580635      	76.390564      	76.08559       	76.43797       	75.96004       	75.98988       	75.33011       	79.19104       	81.099014      	
76.349785      	76.667946      	76.18476       	75.98046       	76.68949       	76.437996      	76.17842       	76.17606       	76.66733       	76.30012       	76.328674      	76.32842       	76.505486      	76.18332       	76.23361       	76.043396      	76.77572       	76.17068       	76.33744       	76.40772       	76.63747       	76.28207       	76.273506      	76.21636       	76.812225      	76.273865      	75.92271       	76.84167       	76.31193       	76.26804       	76.447975      	76.5737        	75.857376      	76.75649       	76.33063       	75.99381       	76.4672        	76.303925      	76.496284      	76.431076      	76.46552       	76.61577       	76.266136      	76.20243       	76.5894        	76.19444       	76.67139       	76.17847       	76.208694      	76.59255       	76.2066        	76.63624       	76.265076      	76.32934       	76.47003       	76.08098       	76.820045      	76.31002       	76.27783       	76.32756       	76.25539       	76.37696       	75.94104       	76.49338       	75.32241       	79.6259        	77.7204        	75.33163       	78.226845      	77.39469       	76.02068       	77.69815       	77.27818       	76.23241       	76.78134       	75.768         	74.3669        	71.30345       	75.79422       	76.65865       	76.20911       	76.378876      	76.30697       	76.6138        	76.35988       	76.27701       	76.47749       	76.39738       	76.40052       	76.180595      	76.31763       	76.78026       	76.1013        	76.48731       	76.0497        	76.15982       	76.27561       	75.34419       	77.17792       	80.03636       	
75.57262       	76.7744        	76.21821       	76.23161       	76.3236        	76.41171       	76.29548       	76.57165       	76.3964        	76.32168       	76.12927       	76.53951       	75.99601       	76.42638       	76.314384      	76.17221       	76.41754       	76.83402       	76.12319       	75.90928       	76.808784      	76.3568        	76.4984        	75.95827       	76.56612       	76.35809       	76.335754      	76.2058        	76.70569       	76.10676       	76.14218       	76.59289       	76.08986       	76.47697       	76.48181       	76.00089       	76.75325       	76.67619       	75.997314      	76.84528       	76.008446      	76.7909        	76.17278       	76.32113       	75.99533       	76.754326      	76.318504      	75.90985       	76.36838       	76.52743       	76.66277       	76.11618       	76.241745      	76.95919       	76.482124      	76.17038       	76.28502       	75.59892       	76.70054       	76.355316      	76.746         	74.95856       	78.68886       	77.26692       	78.189026      	77.97766       	76.94271       	76.57049       	77.120285      	76.0432        	76.61874       	76.57514       	76.085106      	77.59194       	76.220924      	76.26457       	75.703         	70.515236      	74.13138       	76.53582       	76.27634       	76.33215       	76.00914       	76.67981       	76.29492       	76.433685      	76.18927       	76.632515      	76.2775        	76.34411       	76.34759       	76.49256       	76.009415      	76.08515       	76.13035       	76.35908       	75.47898       	75.42923       	76.76807       	79.051094      	
75.78944       	76.3952        	76.36293       	76.18307       	76.24287       	76.31075       	76.31087       	76.58791       	76.513176      	76.28863       	76.72064       	75.87695       	76.24772       	76.11829       	76.41989       	75.76105       	77.20766       	76.096245      	76.36183       	76.283295      	76.53293       	76.43354       	76.43971       	76.14647       	76.71984       	76.27107       	76.06514       	76.49878       	76.56631       	76.34578       	76.08834       	76.39072       	76.18231       	76.23637       	76.77961       	76.16514       	75.78477       	76.511314      	76.60907       	76.37542       	76.34503       	76.57584       	76.51843       	76.350716      	76.347694      	76.12657       	76.31108       	76.3231        	76.10763       	76.151566      	77.14605       	76.26245       	76.36297       	75.35151       	76.58811       	75.47364       	77.01301       	76.71713       	79.48579       	77.67485       	75.85741       	77.83409       	77.13072       	77.256485      	76.735535      	76.53297       	76.57931       	76.035         	76.56879       	76.5958        	76.04435       	76.48639       	75.91534       	77.282394      	75.90576       	76.40591       	75.303116      	72.60325       	72.08505       	75.90604       	76.33818       	76.25985       	76.256004      	76.40466       	76.51716       	76.056206      	76.12608       	76.7358        	76.69194       	76.300316      	76.26858       	76.398315      	76.21157       	76.44394       	75.981026      	75.95152       	75.94438       	75.82772       	76.324425      	77.112114      	
76.114975      	76.18829       	76.35135       	76.48791       	76.31417       	76.27741       	76.54144       	76.368256      	76.264755      	76.65405       	75.87446       	75.94888       	76.80083       	76.05758       	76.54529       	76.34524       	75.56209       	76.84646       	76.406425      	76.18793       	76.525925      	76.274956      	76.30056       	76.67171       	76.04171       	76.497856      	76.12866       	76.43655       	75.504425      	77.108604      	76.22634       	76.54723       	75.90674       	76.96036       	76.79209       	75.24346       	76.21933       	76.58256       	76.48268       	76.2371        	76.55041       	76.35887       	76.28566       	76.82311       	76.11528       	76.40849       	76.87243       	76.09395       	75.98452       	76.663025      	76.20437       	75.39005       	77.637764      	78.53309       	75.9629        	78.69479       	77.7807        	75.62592       	77.34759       	76.80345       	76.23792       	77.094345      	76.13914       	76.26924       	76.81983       	76.38212       	76.22385       	76.18418       	76.312035      	76.3606        	76.268776      	76.28684       	76.36242       	76.25674       	76.4008        	75.40277       	76.13321       	74.637596      	72.67011       	75.2521        	76.31965       	75.97813       	76.98258       	76.1664        	76.40708       	75.88658       	76.46729       	76.28908       	76.75723       	76.38459       	76.833664      	75.509026      	76.409195      	76.56726       	76.00533       	76.42357       	76.20452       	76.5408        	76.15529       	76.53687       	
76.65399       	76.412544      	76.58908       	76.32658       	76.43957       	76.025024      	76.67137       	76.169426      	76.51896       	76.29033       	76.36006       	76.35051       	76.245316      	76.20373       	76.34598       	76.11146       	76.410576      	76.54887       	76.53436       	76.52419       	75.752174      	76.65808       	76.43446       	76.17613       	76.42869       	76.23492       	76.341385      	76.39011       	76.04691       	76.49187       	76.383255      	76.46088       	76.230415      	76.2209        	76.697975      	76.1431        	76.31801       	76.25601       	76.40854       	76.30254       	76.48463       	76.684135      	76.38252       	76.43939       	76.03675       	76.26586       	76.44067       	75.558846      	76.87076       	77.2059        	78.46344       	78.362274      	77.39747       	77.09471       	76.22027       	77.13048       	76.753586      	76.1012        	76.27426       	76.28621       	76.725006      	76.43099       	76.26838       	76.23056       	76.554985      	76.49886       	76.32134       	76.29064       	76.13625       	76.31921       	76.40634       	75.471756      	77.59085       	76.40829       	76.37818       	75.743385      	74.657234      	75.67351       	73.379135      	74.52577       	76.493805      	76.18672       	76.30066       	76.5761        	76.43352       	76.1847        	76.41273       	76.0558        	76.382996      	76.24928       	76.58079       	76.19618       	76.354515      	76.52022       	76.04291       	75.80668       	75.83787       	77.53182       	77.83186       	76.22048       	
76.33656       	76.45253       	76.62184       	76.37761       	76.20274       	76.46394       	76.21242       	76.1641        	76.14184       	76.77647       	76.534096      	76.18728       	76.41785       	76.2983        	76.28048       	76.22861       	76.769264      	76.5866        	76.01913       	76.85375       	75.533165      	76.32133       	76.21961       	76.25341       	76.672356      	76.23834       	76.04513       	76.73819       	76.30919       	76.2075        	76.56417       	76.434875      	76.000786      	76.51565       	76.33254       	76.43782       	76.13725       	76.45849       	76.3855        	76.206314      	75.58141       	77.17363       	76.48635       	75.22106       	76.3529        	79.22684       	77.686874      	75.82271       	77.32575       	76.79842       	77.41104       	76.72011       	76.69101       	76.236855      	76.362175      	76.73092       	75.92401       	76.59999       	76.19139       	76.573296      	76.1051        	76.50119       	75.93988       	76.74504       	75.41368       	77.48392       	76.38937       	76.10462       	76.49347       	76.326584      	74.93057       	78.17574       	76.860176      	75.86049       	76.81736       	76.2376        	75.57158       	74.86955       	73.84416       	73.830055      	76.40284       	76.16452       	76.23542       	76.93418       	75.44874       	76.265755      	76.496994      	76.825806      	76.07428       	76.46196       	76.56041       	75.9089        	75.98413       	76.65345       	76.50103       	76.13557       	76.216805      	76.53169       	76.345375      	76.50308       	
76.43169       	76.13261       	76.47009       	76.31502       	76.32014       	76.15712       	76.631775      	76.29694       	76.31855       	76.389         	76.735565      	76.12287       	76.46407       	75.99943       	76.39339       	76.4246        	76.541145      	76.28693       	76.52595       	75.87018       	76.86463       	76.18969       	76.40383       	76.27561       	76.269485      	76.47504       	76.15365       	76.731735      	76.05432       	76.27609       	76.49865       	76.643715      	76.20483       	76.00434       	76.39694       	76.70654       	76.24086       	76.4055        	76.27297       	76.50814       	73.84658       	79.026474      	78.591225      	77.12551       	77.13535       	77.87684       	76.7756        	76.345825      	76.32795       	75.97241       	76.3715        	76.91445       	76.56066       	75.95865       	76.56287       	76.19053       	76.580475      	76.4167        	76.08329       	76.57937       	76.415016      	76.334015      	76.55264       	76.2439        	76.36454       	76.04832       	76.61645       	76.32546       	76.33857       	76.43402       	76.10228       	76.9649        	75.954834      	76.191124      	76.88625       	75.974434      	76.816444      	75.44763       	73.0109        	72.63822       	75.23921       	76.95361       	76.09643       	75.51256       	76.51508       	76.571754      	76.29191       	76.49214       	76.406334      	75.85659       	76.6308        	76.2073        	76.386375      	76.46018       	76.24535       	75.96273       	76.46576       	76.214066      	77.28254       	76.9158        	
76.36253       	76.16126       	76.57516       	76.45919       	76.01036       	76.53873       	76.31868       	76.621124      	76.08756       	76.28651       	76.243195      	76.59124       	76.26139       	76.15503       	76.68649       	75.92679       	76.283455      	76.625626      	76.18583       	76.50769       	75.91248       	76.487656      	76.19309       	76.484924      	76.39513       	76.34632       	76.405846      	76.53068       	75.96406       	76.63397       	75.92067       	76.67639       	76.13152       	76.52689       	76.073296      	76.57381       	76.18057       	76.20215       	76.17784       	75.85497       	79.68462       	79.479126      	77.99838       	76.75869       	76.22687       	76.23924       	76.20275       	76.36618       	76.383865      	76.218475      	76.49175       	76.431046      	76.381905      	76.558105      	76.22434       	76.453094      	76.40988       	76.34934       	76.21985       	76.473015      	76.394485      	76.509735      	76.21233       	76.67904       	76.50261       	76.24016       	76.23613       	76.03109       	76.14116       	76.471886      	76.54341       	76.87516       	75.6059        	76.37824       	76.50169       	76.308174      	76.316734      	75.83812       	73.29242       	73.23424       	75.503624      	76.42311       	76.18815       	75.950066      	76.72765       	76.27535       	76.85709       	76.19193       	76.0962        	76.27053       	76.43944       	76.497925      	76.20461       	76.13217       	76.18305       	76.116425      	75.97621       	76.72869       	77.54103       	77.05391       	
76.48447       	76.3568        	76.2507        	75.64075       	76.90223       	76.62153       	76.41808       	76.408485      	76.441154      	76.439125      	76.02041       	76.554756      	76.107155      	75.730225      	76.99036       	75.10317       	77.38451       	76.666695      	76.20175       	76.19891       	76.202675      	76.258804      	76.37141       	76.529396      	75.96673       	76.115135      	76.52299       	76.67533       	76.0853        	76.42926       	76.40692       	76.123634      	76.251045      	76.77119       	75.9289        	76.01248       	76.486         	76.33446       	75.10811       	79.95097       	78.95487       	78.17729       	77.18047       	75.80616       	77.10637       	75.57774       	76.77263       	76.49445       	75.98602       	76.27192       	76.23788       	76.428246      	76.44207       	76.601395      	76.712166      	75.87941       	76.22445       	75.842926      	77.15768       	75.74892       	77.18125       	76.31113       	76.082794      	76.38344       	76.547775      	76.27337       	76.44629       	76.83008       	75.69799       	76.43613       	75.780624      	76.97391       	76.23768       	76.3789        	76.60913       	76.218056      	75.114204      	76.001396      	73.95788       	73.65687       	74.098785      	76.322876      	76.33826       	76.33724       	76.21827       	76.28128       	76.31146       	76.40548       	76.123505      	76.560974      	76.18134       	76.42738       	76.448135      	76.025955      	76.04154       	76.22573       	75.90462       	77.09568       	77.84942       	77.91317       	
76.22905       	76.25427       	76.35235       	76.354355      	76.306076      	76.24689       	76.526764      	76.03782       	76.59749       	76.46263       	75.58024       	76.63641       	75.79248       	76.603         	74.73509       	77.509834      	77.70076       	75.47224       	75.92661       	76.73348       	76.446106      	76.923355      	75.86211       	76.78257       	76.449776      	75.922424      	76.2885        	76.354355      	76.20665       	76.703636      	75.63334       	76.700966      	76.725914      	76.24078       	75.7866        	77.0207        	76.444305      	76.463295      	74.56459       	79.62698       	78.39747       	78.18724       	77.798584      	76.55606       	75.93608       	76.479836      	76.00027       	76.61768       	76.52365       	76.53667       	76.235115      	76.1396        	76.70095       	75.77697       	76.84407       	76.30262       	75.86372       	76.24129       	76.77945       	76.33626       	76.19556       	76.641716      	75.74843       	76.81399       	76.29014       	76.34472       	76.5117        	76.40974       	76.21515       	76.67486       	76.19782       	76.176674      	76.237854      	76.52839       	76.624435      	77.12255       	74.56421       	75.76707       	75.231544      	72.60739       	74.48833       	76.314804      	76.49804       	76.20375       	76.47366       	76.46908       	76.10715       	76.269806      	76.276115      	76.13435       	76.26798       	75.888695      	76.354324      	75.92469       	76.47655       	76.5474        	76.987144      	76.570145      	76.15394       	76.04418       	
76.48915       	76.53571       	76.2805        	76.35276       	76.13931       	76.77919       	76.12992       	76.40865       	76.419334      	76.34094       	76.347664      	76.2838        	76.29488       	76.26521       	76.24361       	76.37113       	76.50618       	76.37851       	76.37204       	76.25296       	76.07324       	76.543076      	76.50307       	75.93464       	76.86297       	76.39816       	76.20187       	76.39869       	75.972435      	76.608765      	76.358215      	76.30017       	76.50049       	76.25313       	76.236496      	76.55711       	76.27276       	76.0128        	74.942986      	78.358246      	79.20065       	77.57617       	77.307816      	77.86467       	76.33453       	76.332985      	76.42812       	76.253235      	75.946976      	76.91464       	75.81308       	75.818596      	76.06869       	77.03503       	77.294716      	76.98832       	75.40748       	76.25687       	76.404274      	76.51754       	76.14082       	76.625         	76.50972       	75.73631       	76.940094      	76.98155       	76.43366       	76.179726      	75.83497       	76.83986       	76.32383       	76.37975       	76.039185      	76.26281       	76.84722       	76.32107       	76.6496        	75.371666      	75.34983       	72.4561        	73.38388       	74.1979        	76.56132       	76.09097       	76.48146       	76.47138       	76.216484      	76.311455      	76.64742       	76.28367       	76.49207       	76.17535       	76.411026      	76.204506      	76.445366      	76.03568       	76.16494       	77.185585      	77.241165      	76.76647       	
76.166466      	76.34778       	75.99404       	76.42529       	76.67187       	76.239105      	76.07947       	76.47889       	76.59845       	76.105194      	76.81268       	76.13846       	76.401855      	76.1487        	76.17921       	76.38093       	76.28803       	76.17577       	76.41074       	76.06768       	76.40836       	76.48676       	76.12119       	76.38841       	76.44993       	76.110985      	76.9624        	75.76334       	76.61288       	76.21134       	76.43145       	75.67418       	76.86163       	76.16857       	76.54191       	76.19789       	76.09489       	76.484535      	75.93597       	75.81082       	79.26679       	78.839676      	77.63662       	77.95864       	76.46478       	76.465675      	76.266464      	76.318924      	76.37321       	76.25115       	75.9846        	76.61713       	76.520874      	76.18491       	76.43636       	76.27308       	76.6531        	76.19607       	76.48426       	76.32991       	76.34648       	76.284195      	75.93058       	76.05374       	76.834854      	77.41147       	75.25042       	76.34683       	76.53275       	76.179146      	76.14222       	76.61386       	76.41177       	76.47684       	76.321144      	76.433304      	76.58662       	76.2253        	75.85743       	73.23383       	73.0152        	75.80808       	75.94473       	76.59285       	76.38238       	76.11117       	76.028885      	75.74771       	77.36215       	76.61856       	76.03826       	76.51151       	76.40122       	76.05913       	76.59701       	76.29061       	75.71539       	76.38947       	77.32493       	76.73478       	
76.318985      	76.433205      	76.36551       	76.146034      	76.544754      	76.39149       	76.31897       	76.3715        	76.32694       	76.2756        	76.3792        	76.39436       	76.6078        	76.147095      	75.94297       	76.43569       	76.51139       	76.36441       	76.50283       	76.15555       	75.50526       	77.324005      	76.25998       	76.35369       	76.75479       	76.00115       	76.469246      	75.652916      	77.04567       	76.40186       	76.70362       	75.875114      	76.406815      	76.30337       	76.68155       	76.119896      	75.97543       	76.61479       	75.9067        	75.37397       	80.02021       	77.820526      	78.045166      	76.9655        	77.554306      	76.13918       	76.23484       	76.40021       	76.27835       	76.421776      	76.20459       	76.62435       	76.29134       	76.08214       	76.57917       	75.88386       	75.61574       	77.37781       	76.1673        	76.54812       	76.66914       	76.20434       	76.537056      	75.67249       	76.88117       	76.1616        	76.35855       	76.23552       	76.421684      	75.99867       	76.448105      	76.80644       	76.29306       	76.22883       	76.89696       	76.443344      	76.68347       	76.4973        	75.859085      	74.75963       	72.44205       	75.18191       	75.87633       	76.48793       	76.2921        	76.10891       	76.51225       	76.42972       	76.19965       	76.227234      	76.801285      	76.285324      	76.14143       	76.250916      	76.44857       	76.18405       	75.63209       	76.40001       	77.71224       	77.59689       	
