# www.neaspec.com
# Scan:	 	AFM
# Project:	 	20251007_PS
# Description:	 	
# Date:	 	10/07/2025 11:26:44
# Scanner Center Position (X, Y):	[µm]	49.99	50.01	 
# Rotation:	[°]	0	 	 
# Scan Area (X, Y, Z):	[µm]	5.000	5.000	0.000
# Pixel Area (X, Y, Z):	[px]	100	100	1
# Averaging:	 	1	 	 
# Integration time:	[ms]	5	 	 
# Laser Source:	 	4.5-15 µm nano-FTIR laser
# Detector:	 	R
# Target Wavelength:	[µm]	7.502	 	 
# Demodulation Mode:	 	Fourier
# Tip Frequency:	[Hz]	241,340.500	 	 
# Tip Amplitude:	[mV]	45.700	 	 
# Tapping Amplitude:	[nm]	83.227	 	 
# Modulation Frequency:	[Hz]	0.000	 	 
# Modulation Amplitude:	[mV]	0.000	 	 
# Modulation Offset:	[mV]	0.000	 	 
# Setpoint:	[%]	79.75	 	 
# Regulator (P, I, D):	 	4.206850	8.625812	1.000000
# Tip Potential:	[mV]	0.000	 	 
# M1A Scaling:	[nm/V]	0.426	 	 
# M1A Cantilever Factor:	 	1,000	 	 
# Q-Factor:	 	487.4	 	 
# Version:	 	2.1.11536.0
829.1324       	828.86816      	828.84076      	829.55237      	830.3801       	829.83527      	829.94574      	829.94147      	829.8419       	829.93585      	829.8277       	830.15234      	830.0146       	829.22266      	829.11         	829.63275      	829.4023       	829.6099       	830.29266      	830.37836      	830.48883      	830.47266      	829.5099       	829.36694      	829.28033      	829.6042       	829.31476      	829.3275       	829.9196       	829.21484      	829.3066       	829.9141       	829.0455       	829.20825      	829.664        	830.80774      	830.95935      	830.68445      	828.62463      	828.6357       	828.8649       	829.09155      	829.66125      	828.55756      	828.65955      	828.903        	829.6383       	828.56683      	828.66907      	828.861        	829.48956      	828.59344      	828.7062       	828.921        	828.9161       	828.9209       	830.2608       	830.34796      	830.31586      	830.2299       	830.57336      	830.3521       	830.12024      	830.26227      	830.51746      	829.9512       	828.95996      	829.26434      	828.90906      	829.379        	829.33234      	829.9264       	829.9647       	830.1816       	830.2012       	830.31586      	830.3617       	830.2455       	830.47906      	830.331        	830.63153      	830.42413      	829.3825       	829.14545      	829.7398       	829.07587      	829.17224      	829.17346      	829.1946       	829.9345       	829.1354       	829.52277      	829.04333      	829.1176       	829.0868       	828.9173       	829.09155      	829.81995      	829.0677       	830.171        	
829.88306      	830.014        	830.07434      	829.95715      	829.96814      	829.98773      	829.9293       	829.87085      	829.99255      	830.0557       	829.99744      	830.0655       	830.0485       	829.9131       	829.3086       	829.18335      	829.4512       	829.319        	829.6431       	829.3886       	829.7659       	829.4379       	829.3479       	829.94543      	829.3249       	829.3347       	829.69714      	829.16675      	829.2348       	829.9281       	828.96246      	829.1073       	829.73315      	828.8194       	828.9608       	829.1811       	828.85974      	828.6721       	828.82153      	829.06647      	830.1725       	828.4912       	828.6236       	828.835        	829.3926       	828.48505      	828.5282       	828.7392       	829.2804       	828.5553       	828.58746      	828.7486       	829.55774      	828.69696      	829.1356       	830.2948       	830.1591       	830.1444       	830.1182       	830.5443       	830.1179       	830.2352       	830.2211       	830.16174      	830.0917       	830.3245       	828.80066      	829.7532       	829.11285      	830.1239       	830.1735       	830.2764       	830.1815       	830.2978       	830.1942       	830.37524      	830.1772       	830.41705      	830.3502       	830.5265       	829.57874      	829.07007      	829.3609       	829.06067      	829.56775      	829.0478       	829.1035       	829.1227       	829.07166      	829.3331       	829.02826      	829.4667       	828.89233      	829.0032       	830.1187       	828.8196       	828.9106       	830.17004      	830.4054       	829.94763      	
829.76666      	829.9107       	830.06067      	830.34283      	830.0942       	829.8529       	830.04926      	830.04254      	830.13574      	830.0642       	830.20435      	830.12756      	830.1442       	830.38934      	829.4384       	829.29144      	829.79565      	829.3552       	829.678        	829.4001       	829.32166      	829.7836       	829.29877      	829.27924      	829.6595       	829.22504      	829.27563      	829.6725       	829.0557       	829.1681       	829.7527       	828.8829       	829.04333      	829.8492       	828.6444       	828.79956      	828.9838       	829.6207       	828.4462       	828.5885       	828.8733       	829.7383       	828.45276      	828.5009       	828.709        	829.5667       	828.5563       	828.57074      	828.6911       	829.1712       	828.6267       	828.64655      	828.7793       	828.97003      	828.75934      	829.2174       	830.2164       	830.1573       	829.9974       	830.55206      	830.291        	830.30365      	830.2077       	830.20636      	830.2972       	830.2192       	830.0763       	830.18384      	830.1094       	830.1941       	830.0335       	830.4104       	830.1595       	830.26685      	830.37427      	830.3555       	830.5293       	830.26294      	830.1954       	830.3867       	830.31555      	829.51794      	829.0725       	829.13336      	829.8024       	829.1023       	829.5331       	829.08777      	829.2012       	829.59985      	828.92426      	829.0396       	829.8813       	828.83386      	828.90393      	829.01746      	828.8395       	828.81433      	828.9483       	829.62274      	
829.932        	830.3034       	830.5632       	830.2556       	830.39557      	830.22894      	830.39716      	830.40045      	830.1946       	830.4145       	830.39514      	830.58655      	830.4528       	830.68555      	830.80383      	829.6367       	829.54565      	830.1106       	829.61926      	829.5586       	830.0652       	829.6109       	829.6077       	829.8845       	829.5813       	829.8702       	829.44794      	829.5432       	829.933        	829.2849       	829.4257       	829.91895      	829.07874      	829.23535      	829.8931       	828.85315      	828.9066       	829.10223      	829.6722       	828.73236      	828.7613       	828.93854      	829.2543       	829.0137       	828.7692       	828.86487      	829.05304      	829.7716       	828.8675       	828.8694       	829.06085      	829.1197       	828.9327       	829.37103      	829.01764      	829.0487       	830.2058       	829.4804       	830.3318       	830.5898       	830.4714       	830.58484      	830.4403       	830.6702       	830.62415      	830.5033       	830.6112       	830.3853       	830.12537      	830.5731       	830.6858       	830.4545       	830.6384       	830.6787       	830.6143       	830.49994      	830.80505      	830.44635      	830.7805       	830.9509       	830.7175       	830.8394       	829.3334       	829.42786      	830.5862       	829.3554       	829.81256      	829.3271       	829.444        	830.2415       	829.2744       	829.65106      	829.308        	829.20416      	829.8425       	829.1762       	829.24066      	829.82825      	829.2102       	830.0182       	
830.4511       	830.63715      	830.7219       	830.6998       	830.5883       	830.669        	830.7053       	830.6017       	830.66254      	830.67926      	830.7399       	830.8366       	830.8663       	830.8974       	830.962        	830.91296      	830.9486       	829.851        	830.2351       	829.8295       	830.21         	829.8393       	830.3334       	829.80286      	829.8158       	830.1013       	829.7174       	830.33795      	829.46124      	829.6035       	830.2719       	829.3729       	829.5309       	830.10736      	829.1387       	829.2753       	829.4423       	830.4984       	828.9873       	829.0831       	829.29565      	829.849        	828.9646       	829.0294       	829.2031       	829.7696       	829.07214      	829.08453      	829.2878       	829.25854      	829.1738       	829.83234      	829.1999       	829.2659       	830.70514      	829.69086      	829.4718       	830.59766      	830.7224       	830.564        	830.7686       	830.8379       	830.99896      	830.8856       	830.7686       	830.9848       	830.74695      	830.8242       	830.62006      	830.625        	830.56726      	830.7856       	830.74347      	830.7738       	831.03674      	830.8321       	831.0166       	830.60455      	831.06476      	830.79004      	831.1426       	830.82184      	830.15784      	829.5886       	830.0709       	829.5572       	830.1124       	829.47394      	829.574        	830.50415      	829.51263      	829.9337       	829.38074      	829.49194      	830.4293       	830.9167       	831.04596      	830.7119       	830.4306       	830.9656       	
830.70734      	830.77203      	830.9389       	831.07745      	830.9896       	830.87726      	830.5985       	831.0619       	830.8214       	830.9227       	830.9047       	830.96313      	830.94183      	830.99927      	830.91394      	831.13367      	831.0685       	831.16895      	831.02826      	831.1293       	830.9665       	830.79         	829.84375      	830.18646      	830.8391       	831.0735       	830.7901       	829.61237      	829.61566      	830.18427      	829.48267      	829.59534      	830.15497      	829.2289       	829.3769       	829.6458       	829.27893      	829.1436       	829.27527      	829.8116       	829.0784       	829.1126       	829.29755      	829.4269       	829.0894       	829.1475       	829.60675      	829.16266      	829.2061       	829.81146      	829.1845       	829.2464       	829.5784       	829.27954      	829.5915       	829.3646       	830.5077       	830.74805      	830.6921       	830.6328       	830.90436      	830.9182       	831.0351       	831.1765       	831.0183       	830.9315       	830.95667      	830.8422       	830.9689       	830.89844      	830.98987      	831.06665      	830.9822       	831.0163       	830.9697       	831.00525      	831.1855       	830.952        	831.0186       	831.0424       	831.0553       	831.00806      	831.236        	830.6969       	829.54333      	830.0102       	829.5051       	829.64124      	830.10425      	829.4244       	829.62866      	829.4962       	829.56476      	830.9587       	830.7614       	830.77875      	830.85767      	830.9202       	830.91016      	830.8393       	
830.6005       	830.7062       	831.01263      	831.0321       	830.8778       	830.8243       	830.862        	830.92664      	830.8206       	830.8695       	830.9037       	830.92444      	830.9818       	830.9677       	831.14557      	831.05554      	831.01373      	831.2001       	831.13873      	831.3294       	831.2283       	831.223        	831.2772       	831.54456      	831.3375       	831.172        	831.0631       	831.28687      	829.668        	829.7985       	830.4182       	829.4425       	829.64325      	829.46643      	829.19556      	829.32294      	829.5932       	829.07556      	829.11945      	829.29016      	830.03253      	829.0746       	829.1566       	829.559        	829.1114       	829.1437       	829.2804       	829.31335      	829.2418       	829.5004       	829.415        	829.30054      	829.8699       	829.335        	829.6233       	830.37415      	830.61145      	830.6588       	830.6253       	830.7613       	830.8002       	830.8149       	831.0019       	830.79816      	830.85614      	831.0077       	830.8086       	830.88904      	830.87885      	830.8373       	830.93945      	830.8811       	831.096        	830.9531       	830.9563       	830.9385       	831.09125      	831.0622       	831.1205       	831.05707      	831.1155       	831.08044      	830.93713      	831.17346      	831.4564       	831.7178       	829.529        	829.6653       	829.7237       	829.5315       	829.9372       	829.525        	829.983        	829.52594      	829.66626      	830.9532       	830.98395      	831.099        	830.95795      	830.9228       	
830.8725       	830.97034      	831.0235       	831.3233       	831.24634      	831.0561       	831.19946      	831.1575       	831.14056      	831.16473      	831.1618       	831.13574      	831.19617      	831.29297      	831.3418       	831.3285       	831.31476      	831.43805      	831.4228       	831.52124      	831.40894      	831.554        	831.6163       	831.41254      	831.5157       	831.54663      	831.4872       	831.4241       	829.79407      	829.8851       	830.4771       	829.5537       	829.76105      	830.47565      	829.36383      	829.44574      	829.9105       	829.2651       	829.2977       	829.52075      	829.35846      	829.2742       	829.37244      	829.6158       	829.33466      	829.3805       	830.3556       	829.42096      	830.01556      	829.4671       	829.4771       	829.8916       	829.5328       	829.9659       	829.6586       	829.59955      	831.1527       	830.8464       	830.7908       	829.703        	830.5434       	831.1533       	831.14386      	831.01215      	831.0817       	831.2335       	831.3219       	831.0025       	831.0121       	831.19916      	831.3495       	831.15         	831.09937      	831.336        	831.27405      	831.18164      	831.13196      	831.2192       	831.2017       	831.3474       	831.2687       	831.2527       	831.1907       	831.3971       	831.30206      	831.2605       	831.4046       	829.8487       	829.7861       	830.50653      	829.6814       	829.80566      	829.76294      	829.7405       	830.33234      	829.66656      	830.02936      	829.65063      	830.5344       	830.9993       	
831.18665      	831.40045      	831.523        	831.48816      	831.3086       	831.401        	831.5922       	831.39056      	831.47565      	831.47925      	831.5156       	831.5146       	831.6407       	831.51917      	831.6093       	831.6588       	831.66736      	831.7278       	831.7659       	831.81256      	831.8203       	831.8074       	831.89514      	831.96136      	831.62         	831.6402       	831.66296      	831.4987       	831.95886      	831.96674      	829.9193       	830.1122       	829.83167      	829.7327       	829.95807      	830.01825      	829.58685      	829.7436       	830.5615       	829.58215      	829.6373       	830.1624       	829.6251       	829.66113      	830.1371       	829.7015       	829.6879       	831.14386      	829.7345       	830.2818       	829.82574      	830.1303       	829.9514       	829.9088       	830.19653      	829.91345      	829.90875      	830.303        	829.95575      	830.11237      	830.07214      	830.0103       	830.31647      	830.0344       	830.5764       	830.0639       	830.4733       	831.3661       	831.49384      	831.47424      	831.50824      	831.57904      	831.3878       	831.48346      	831.4821       	831.4127       	831.4928       	831.5115       	831.46814      	831.60144      	831.47235      	831.6367       	831.6171       	831.5976       	831.6186       	831.6784       	831.3385       	831.78033      	831.60095      	831.94696      	831.64197      	831.2782       	831.4657       	831.3505       	831.23444      	831.04266      	831.2864       	831.49225      	831.30145      	831.3457       	
831.4967       	831.7913       	832.0229       	831.7525       	831.92737      	831.8899       	831.87415      	831.86957      	831.82214      	831.9016       	831.8863       	831.9495       	831.91016      	831.96936      	832.03937      	832.0051       	832.0435       	832.03894      	832.0515       	832.03503      	832.08136      	832.29425      	832.10657      	832.2409       	832.1472       	831.8269       	831.84735      	831.9648       	831.83435      	831.9569       	832.0765       	831.99805      	831.75836      	831.99445      	829.99286      	830.1539       	830.46136      	829.8761       	830.0388       	829.9029       	829.8444       	830.573        	829.9456       	829.85394      	831.01245      	831.1755       	831.1959       	831.33374      	831.4579       	831.44574      	830.4698       	830.1035       	830.69147      	830.1533       	830.83716      	831.3521       	831.4099       	831.56415      	831.41205      	831.4733       	831.55426      	830.26624      	831.2054       	831.81775      	831.8171       	831.78864      	831.54407      	831.9872       	831.6179       	831.8112       	831.66724      	831.7421       	831.74536      	831.78314      	831.7732       	831.7008       	831.71423      	831.72845      	831.774        	831.7955       	831.79926      	831.85944      	831.7532       	831.7219       	831.7807       	831.80554      	831.7909       	831.8954       	831.84436      	831.9057       	831.7146       	831.5273       	831.6239       	831.5921       	831.5984       	831.1731       	831.64624      	831.56824      	831.5852       	831.50195      	
831.62146      	831.79614      	832.0883       	831.9596       	832.0929       	831.9125       	831.92096      	831.881        	831.9156       	831.9493       	831.92645      	831.93317      	831.9284       	831.9131       	832.0613       	832.1187       	832.0856       	832.0653       	831.9902       	832.15717      	832.0908       	832.26794      	832.0016       	832.25806      	832.1238       	832.19305      	832.07043      	831.84564      	832.3231       	832.155        	832.00354      	832.05774      	831.4483       	830.0434       	830.6349       	830.04596      	830.09863      	831.09625      	829.9446       	829.98706      	830.75885      	829.9678       	829.91235      	830.8806       	831.2047       	831.3343       	831.2423       	831.1223       	831.2304       	831.29425      	831.3284       	830.1787       	830.6153       	830.329        	830.235        	830.7549       	830.277        	830.77734      	830.42126      	830.31146      	830.8522       	830.3441       	830.8148       	830.3923       	830.5491       	830.46936      	830.39386      	830.8103       	830.4739       	831.33765      	831.94183      	831.6377       	831.7727       	831.9104       	831.5818       	831.7435       	831.9342       	831.7117       	831.8525       	831.7516       	831.77203      	831.8382       	831.7548       	831.76434      	831.87726      	831.71875      	831.735        	831.84644      	831.6806       	831.99536      	831.5278       	831.44556      	831.5495       	831.6249       	831.52704      	831.41315      	831.49414      	831.4415       	831.56445      	831.4431       	
831.62396      	831.669        	831.7193       	831.9931       	831.8743       	831.8393       	831.8027       	831.8458       	831.893        	831.88025      	831.8933       	831.75824      	831.8369       	831.92114      	832.04987      	831.9837       	832.001        	832.08777      	832.11945      	832.02026      	831.97015      	832.15906      	832.10187      	832.10675      	832.1056       	831.96277      	832.1019       	831.90375      	831.9928       	831.9687       	831.498        	831.3523       	831.89557      	829.9521       	830.1563       	829.9745       	830.08325      	830.3191       	829.91376      	830.34985      	829.9232       	829.9181       	831.08795      	831.3359       	831.2908       	831.24475      	831.25226      	829.9633       	830.2299       	831.2687       	830.07947      	830.55536      	830.171        	830.18835      	830.3267       	830.22504      	830.8226       	830.30035      	830.2679       	830.6921       	830.2874       	830.30237      	830.67883      	830.31775      	830.94525      	830.35144      	830.5514       	830.40045      	830.4893       	831.3226       	830.38025      	830.43256      	831.6094       	831.69836      	831.77405      	831.7031       	831.78973      	831.62213      	831.7506       	831.4883       	831.85034      	831.75195      	831.79584      	831.7826       	831.70764      	831.7465       	831.7621       	831.7581       	831.8353       	831.77594      	830.13293      	832.74475      	830.234        	831.4939       	831.5745       	831.4466       	831.4069       	831.4031       	831.44293      	831.4674       	
831.64496      	831.7066       	831.88837      	831.9771       	831.87604      	831.8636       	831.8213       	831.8287       	831.8922       	831.92847      	831.7924       	831.8932       	831.8933       	831.92017      	831.99426      	831.8958       	832.05786      	832.0533       	832.098        	832.2594       	831.9473       	831.84595      	831.95355      	832.0045       	832.09076      	831.8717       	831.91534      	832.0777       	831.77765      	831.9053       	831.6451       	831.29877      	831.5574       	831.3648       	831.106        	831.54047      	829.8867       	830.46204      	829.8502       	829.92505      	830.14355      	829.86224      	830.96704      	831.288        	831.2027       	831.3666       	831.0458       	830.14984      	830.05176      	830.5596       	830.2139       	830.4602       	830.3085       	830.2452       	830.86615      	830.2965       	830.49866      	830.4154       	830.3454       	831.0579       	830.43976      	830.39105      	830.7083       	830.35876      	830.39386      	831.4628       	830.4055       	830.903        	830.36707      	830.88806      	830.3572       	830.92993      	830.3937       	830.52563      	831.52997      	831.6694       	831.9276       	831.7376       	831.46686      	831.80896      	831.7516       	831.86847      	831.7074       	831.7845       	831.66724      	831.84515      	831.73883      	832.07935      	831.6578       	831.90753      	831.57263      	831.59656      	831.65625      	831.47546      	831.4078       	831.41266      	831.577        	831.5201       	831.53186      	831.5278       	
831.7512       	831.9086       	832.0829       	832.2323       	831.843        	831.9974       	831.97125      	831.81506      	831.92737      	832.00854      	831.9837       	831.91754      	832.0163       	832.19946      	831.9807       	832.0655       	832.1412       	832.0977       	832.1314       	832.1953       	832.0072       	832.0003       	832.1555       	831.9866       	832.0752       	832            	831.92487      	832.1254       	831.8796       	831.4479       	831.8871       	830.1048       	831.18567      	830.16895      	830.56415      	830.0344       	830.6383       	829.95276      	830.03815      	830.988        	829.927        	830.87524      	831.51636      	831.48016      	831.5009       	831.33813      	830.1345       	830.0954       	830.75183      	830.2355       	830.2437       	830.47003      	830.3064       	830.92053      	830.42444      	830.7419       	830.43616      	830.4154       	830.53973      	830.4122       	831.06287      	830.44147      	830.453        	831.1547       	830.4197       	830.46387      	830.5052       	830.43567      	830.84534      	830.40784      	830.9772       	830.3333       	830.4947       	831.7105       	831.79724      	831.87134      	831.67456      	831.79254      	831.77734      	831.6847       	831.6788       	831.7888       	831.8057       	831.85583      	831.88116      	831.72925      	831.77606      	831.76587      	831.69403      	831.77765      	831.5315       	831.6339       	831.4901       	831.52014      	831.2976       	831.5564       	831.4957       	831.4893       	831.4425       	831.5498       	
831.91644      	832.2273       	832.40234      	832.2044       	832.0644       	832.1077       	832.0152       	831.86945      	832.01135      	831.9884       	832.01794      	832.0471       	832.0912       	832.0101       	832.0954       	832.10614      	832.18726      	832.25616      	832.17926      	832.06055      	832.234        	832.32367      	832.1615       	831.98334      	831.9148       	832.1449       	831.8902       	831.6513       	831.70825      	831.7854       	830.21484      	831.71594      	831.7832       	830.12335      	830.6501       	829.99066      	830.52405      	829.9889       	830.1158       	830.17194      	830.0036       	830.5869       	830.11456      	830.09625      	830.81976      	830.1738       	830.3878       	830.33563      	830.2901       	830.58356      	830.4558       	830.3828       	830.99506      	830.4796       	830.42017      	830.6033       	830.5102       	830.97656      	830.5536       	830.5237       	831.25024      	830.55286      	830.53766      	831.2115       	830.49084      	830.79407      	830.5336       	830.6853       	830.57574      	830.47626      	831.68024      	831.7044       	831.8173       	831.79333      	831.85315      	831.8591       	831.74426      	831.94116      	831.8403       	831.85767      	831.8691       	831.9159       	831.95984      	831.9361       	831.84174      	831.922        	831.87115      	830.24207      	830.2479       	831.8897       	831.684        	831.50726      	831.6571       	831.4029       	831.5579       	831.7091       	831.65424      	831.581        	831.54456      	831.6811       	
832.1469       	832.10406      	832.26184      	832.5251       	832.292        	832.2729       	832.1388       	832.296        	832.0388       	832.09906      	832.17175      	832.09045      	832.19104      	832.0984       	832.17615      	832.2358       	832.29913      	832.43665      	832.375        	832.2779       	832.2514       	832.0706       	832.15436      	832.23706      	832.2035       	832.0948       	832.1992       	832.3442       	832.1698       	832.0724       	831.9442       	831.68066      	831.446        	831.44867      	831.7898       	830.1331       	830.6376       	830.18256      	830.1835       	830.96716      	830.28314      	830.2216       	830.51434      	830.3481       	830.75934      	830.51996      	830.37085      	830.96246      	830.63354      	830.545        	831.9628       	830.6389       	830.6016       	831.0228       	830.6761       	830.94086      	830.6811       	831.0011       	830.65045      	830.66644      	831.22144      	830.61694      	830.63074      	831.2693       	830.63293      	830.94604      	830.80414      	830.69666      	831.36536      	830.71234      	831.5446       	831.92633      	831.83344      	831.7156       	832.084        	831.7851       	831.9898       	831.87335      	832.13855      	832.01605      	831.9716       	831.87683      	832.04333      	831.85547      	832.093        	831.9258       	831.89526      	832.0645       	830.3821       	830.6399       	830.4874       	830.52747      	831.8031       	831.7067       	831.635        	831.6812       	831.59644      	831.81506      	831.80707      	831.8917       	
832.2685       	832.25946      	832.4441       	832.6536       	832.6022       	832.5837       	832.281        	832.447        	832.3153       	832.2533       	832.3512       	832.3863       	832.3075       	832.3619       	832.4746       	832.44714      	832.5606       	832.59174      	832.4479       	832.39734      	832.2935       	832.2274       	832.21716      	832.2128       	832.24945      	832.19574      	832.3649       	832.3575       	832.0785       	832.0487       	832.0771       	831.8193       	832.19696      	831.9245       	831.733        	833.8925       	830.3226       	830.9303       	830.41595      	830.3726       	830.8852       	830.4606       	830.70825      	830.7283       	830.5511       	831.01697      	830.76624      	830.66534      	831.26575      	830.9064       	830.7859       	831.40027      	830.9356       	830.89453      	831.50616      	830.9075       	831.42053      	830.90784      	830.8903       	831.2829       	830.7888       	831.45856      	830.835        	830.8225       	831.2977       	830.7973       	830.82947      	831.72876      	830.804        	831.4019       	830.806        	830.82886      	831.82825      	832.07025      	832.2584       	832.1286       	832.0426       	832.00793      	832.18677      	831.9366       	832.0439       	831.9527       	831.8907       	832.0637       	831.5765       	830.5879       	831.04846      	830.4887       	830.9681       	830.4782       	830.4519       	832.0292       	831.8207       	832.0813       	831.67456      	831.8847       	831.6732       	831.83234      	831.75714      	831.84766      	
832.2789       	832.40985      	832.4252       	832.4238       	832.50183      	832.3327       	832.30457      	832.24146      	832.2397       	832.34863      	832.267        	832.27997      	832.39886      	832.37823      	832.44653      	832.2214       	832.4297       	832.4128       	832.2274       	831.96606      	832.04285      	832.0738       	832.1459       	832.1825       	832.1367       	832.1151       	832.0028       	832.11914      	832.00385      	831.95776      	832.00653      	831.8558       	831.80914      	831.566        	831.7901       	831.82104      	831.56067      	830.5598       	830.3818       	830.98413      	830.64294      	830.53754      	830.93555      	830.7175       	830.58295      	830.9961       	830.7504       	831.2917       	830.9128       	830.90027      	831.4248       	830.96643      	830.9317       	831.5404       	830.96735      	831.07263      	830.9439       	830.92834      	831.49567      	830.851        	830.8893       	830.8061       	830.80707      	831.4483       	830.84937      	830.79663      	831.45966      	830.7515       	831.25806      	830.75806      	830.8129       	832.2488       	832.1451       	831.9535       	832.09247      	832.04785      	832.35425      	832.2555       	832.14514      	832.0619       	831.9248       	832.23706      	831.9958       	830.9684       	830.60614      	831.1764       	830.55707      	831.0625       	830.5381       	830.8725       	830.5707       	830.4911       	831.807        	831.75964      	831.78687      	831.7319       	831.88824      	831.8104       	831.97864      	831.85144      	
832.3152       	832.42896      	832.47455      	832.4584       	832.4774       	832.4485       	832.2669       	832.3062       	832.2135       	832.3832       	832.25366      	832.2728       	832.27966      	832.4496       	832.40533      	832.36206      	832.41797      	832.39105      	832.2157       	832.08         	832.0123       	832.07513      	832.07654      	832.131        	832.07745      	831.8878       	831.95703      	831.80066      	831.9967       	831.75555      	831.94684      	831.87463      	831.8472       	831.8585       	831.79095      	831.7301       	831.90405      	831.6925       	830.5201       	831.0365       	830.7253       	830.63196      	831.02966      	830.72754      	831.5323       	830.84985      	831.2506       	831.0105       	830.9146       	831.1827       	831.0111       	831.4988       	831.0515       	831.0163       	831.82776      	830.9794       	831.4799       	830.9718       	831.3383       	830.8673       	830.90765      	831.4005       	830.83734      	830.846        	830.8464       	830.8062       	831.28345      	830.7574       	831.2799       	830.84216      	831.78455      	832.0738       	832.1744       	832.10657      	832.14526      	832.19684      	832.2364       	832.06726      	832.21063      	832.2816       	830.6142       	831.3245       	830.5966       	830.66797      	830.7849       	830.58093      	831.614        	830.5694       	831.0775       	830.5823       	830.57355      	831.7838       	831.92035      	831.87213      	831.9131       	831.9036       	831.9245       	832.0849       	831.7888       	831.8995       	
832.40326      	832.5374       	832.5898       	832.5025       	832.6891       	831.977        	832.3887       	832.0774       	832.27216      	832.0612       	832.3306       	832.3909       	832.3036       	832.4118       	832.4281       	832.61096      	832.3959       	832.28577      	832.3014       	832.2399       	832.0834       	832.0671       	832.433        	832.15845      	832.09644      	831.72974      	831.90924      	831.93756      	831.89606      	831.962        	831.5867       	831.7462       	831.67163      	831.5458       	831.7086       	831.7862       	831.90717      	831.67377      	830.77234      	830.62085      	830.8767       	830.8893       	830.71155      	831.12683      	830.81305      	830.73816      	831.1302       	830.97205      	831.34924      	831.00946      	830.9775       	831.55237      	830.9801       	831.0279       	831.4608       	830.99603      	831.3405       	830.9308       	830.9719       	831.65204      	830.7994       	830.84467      	831.5267       	830.7646       	830.81586      	831.52563      	830.8149       	831.3295       	831.6882       	831.9684       	832.0117       	832.2802       	832.09937      	832.01465      	831.9622       	832.1327       	832.0601       	832.1227       	832.51984      	830.7077       	831.1251       	830.602        	830.8396       	830.70337      	830.5563       	831.21356      	830.5308       	830.9347       	830.6113       	830.5271       	831.5284       	832.0787       	830.52496      	830.48364      	831.9052       	831.76355      	831.8925       	831.8751       	831.68677      	831.79504      	
832.33624      	832.4838       	832.47766      	832.5371       	832.3202       	832.27277      	831.9564       	832.22327      	832.1073       	832.12195      	832.07117      	832.081        	832.2639       	832.2097       	832.36096      	832.25525      	832.2177       	832.0604       	832.02637      	832.00775      	832.1283       	832.07324      	831.94617      	831.9594       	831.8357       	831.7073       	831.6364       	831.6432       	831.66235      	831.7122       	831.394        	831.4161       	831.8135       	831.60156      	831.8597       	831.7393       	831.5111       	831.4167       	831.77374      	830.8539       	830.6576       	830.9553       	830.8476       	830.7351       	831.2885       	830.8542       	831.5611       	831.0143       	830.9772       	831.3689       	830.9746       	830.9869       	831.24664      	831.04926      	831.0349       	831.70087      	830.9296       	831.00946      	831.1065       	830.8837       	831.2207       	830.7431       	830.78687      	831.4122       	830.7245       	831.12146      	831.6656       	832.04974      	832.0958       	831.87396      	832.2226       	831.9665       	832.14813      	832.1044       	831.9926       	832.1532       	832.16156      	832.0178       	830.7546       	830.55817      	830.6476       	830.6059       	830.5566       	830.9993       	830.50854      	830.9098       	830.5102       	830.4657       	830.9649       	830.5074       	830.93646      	830.51984      	830.4649       	831.3139       	830.59625      	830.4286       	831.4933       	831.56067      	831.6658       	831.8277       	
832.1311       	832.0917       	832.0685       	832.20337      	832.1347       	832.1395       	831.7389       	832.0525       	830.89996      	831.87213      	831.9936       	831.8209       	832.09503      	831.9503       	832.1134       	832.0107       	831.9324       	831.77576      	831.8096       	831.6846       	831.9286       	831.579        	831.46704      	831.93616      	831.43555      	831.64453      	831.60803      	831.36926      	831.2073       	831.037        	831.20184      	831.26044      	831.5647       	831.46606      	831.5465       	830.44305      	830.17957      	831.692        	831.55835      	830.56146      	830.4734       	830.72144      	830.57916      	831.22406      	830.6952       	830.6065       	831.14465      	830.8004       	830.77344      	835.98376      	830.8146       	830.8243       	831.4054       	830.82996      	830.93134      	830.8054       	830.8118       	831.3354       	830.70795      	830.9955       	830.559        	830.6428       	830.92145      	830.5958       	831.906        	831.97046      	831.7149       	831.99036      	831.689        	831.985        	831.7206       	831.9617       	831.81335      	831.7778       	832.02606      	831.997        	830.3602       	830.3556       	830.64453      	830.2448       	830.23956      	830.5853       	830.3037       	830.2047       	830.22504      	830.6849       	830.2519       	830.18713      	830.695        	830.2696       	830.2247       	831.98895      	830.3382       	830.23334      	830.71594      	830.2913       	830.4364       	831.15466      	831.5099       	831.84827      	
831.9182       	831.96985      	832.0403       	831.99084      	831.9537       	831.7405       	831.6293       	831.77734      	831.97107      	831.6422       	831.6405       	831.6599       	831.82214      	831.815        	831.8737       	831.71136      	831.8906       	831.7144       	831.4937       	831.85675      	831.56354      	831.48474      	831.5524       	831.4493       	831.71204      	831.34937      	831.3605       	831.2233       	831.07074      	831.16296      	831.09015      	831.2073       	831.47455      	831.4107       	831.46655      	831.6628       	831.39526      	831.60706      	831.49054      	830.69116      	830.5059       	830.90717      	830.63116      	832.1278       	830.6686       	831.99915      	830.76886      	831.4442       	830.82153      	830.8414       	832.4347       	830.7965       	830.8379       	830.9771       	830.8453       	831.4883       	830.77203      	831.1344       	830.75226      	831.3267       	830.69635      	830.74976      	832.04285      	832.11383      	832.0483       	831.9686       	832.00854      	831.95306      	831.8535       	831.95905      	831.9015       	831.8043       	832.0739       	831.8757       	831.9349       	831.84015      	830.4526       	831.09625      	830.42944      	830.35547      	830.7803       	830.4645       	830.4067       	830.6532       	830.54626      	830.3802       	830.34467      	830.97003      	830.4766       	830.38763      	832.1218       	830.49713      	830.41675      	831.0069       	830.45825      	830.8422       	830.5155       	831.44965      	831.78455      	831.86975      	
832.2164       	832.2258       	832.41785      	832.3939       	832.20404      	831.7164       	832.084        	832.2242       	832.17957      	832.06934      	832.1806       	832.15137      	832.21204      	832.21216      	832.10034      	831.8839       	832.1553       	832.03784      	831.9566       	832.0391       	831.95215      	831.7474       	831.8104       	831.77625      	831.79095      	831.7605       	831.588        	831.55005      	831.57367      	831.4856       	831.4196       	831.73376      	831.6709       	831.70154      	831.72974      	831.91077      	832.1101       	832.08954      	832.1595       	832.18036      	832.12866      	831.65         	831.05835      	831.5198       	831.1235       	834.3043       	831.11255      	831.7702       	831.163        	831.9459       	832.80835      	832.3651       	832.5235       	832.65466      	832.5311       	832.74194      	832.6515       	832.33203      	832.3417       	832.41125      	832.5192       	830.99677      	831.93005      	832.0986       	832.3368       	832.4249       	832.11755      	832.45703      	832.26746      	832.3189       	832.0603       	832.0615       	832.238        	832.01794      	832.2842       	832.4064       	831.20044      	830.74585      	830.7653       	831.1211       	830.72974      	830.7299       	831.1757       	830.7946       	830.7458       	830.98346      	830.9834       	830.81537      	830.7536       	831.3484       	830.9482       	830.8889       	831.0315       	831.04926      	830.87506      	830.8469       	832.26666      	830.876        	831.26624      	830.9106       	
832.61176      	832.85974      	832.72144      	832.6431       	832.5622       	831.3292       	832.14734      	832.35046      	832.77625      	832.4481       	832.5678       	832.5456       	832.42804      	832.6328       	832.5491       	832.51843      	832.24426      	832.6946       	832.361        	832.4269       	832.3304       	832.1744       	832.35803      	832.22943      	832.17865      	832.01685      	831.86395      	832.13367      	831.9857       	832.06635      	832.1614       	832.26886      	832.0958       	832.37244      	832.3702       	832.4226       	832.4452       	832.39905      	832.5232       	832.3737       	832.7385       	832.5889       	833.11707      	831.702        	831.64905      	832.074        	831.69214      	832.0904       	831.6276       	831.6803       	832.12585      	831.5232       	831.6133       	832.1181       	831.7193       	832.006        	831.66534      	831.97504      	831.5808       	832.113        	831.56537      	832.51746      	832.2496       	831.8647       	832.84924      	832.7838       	832.73346      	832.80273      	832.41925      	832.836        	832.5784       	832.7833       	832.768        	832.4501       	832.5619       	832.64557      	831.29846      	831.29565      	831.40894      	831.37445      	831.33276      	831.30347      	831.95966      	831.3739       	831.31537      	831.6235       	831.4683       	831.3757       	831.4276       	831.6637       	831.46686      	831.3344       	831.66833      	831.5297       	831.4736       	831.406        	831.5414       	831.4127       	831.9734       	831.47253      	
833.04205      	833.15424      	832.99146      	832.8269       	832.92487      	832.89154      	832.87115      	832.9692       	832.7865       	832.607        	832.89655      	832.80597      	832.81256      	832.99255      	833.0514       	832.63055      	832.7228       	832.9293       	832.6892       	832.712        	832.5947       	832.819        	832.68524      	832.52216      	832.54486      	832.457        	832.3344       	832.4605       	832.50684      	832.5375       	832.44165      	832.68933      	832.4973       	832.73773      	832.739        	832.7516       	832.82623      	832.8405       	833.0433       	833.0544       	833.0242       	833.0533       	833.2645       	832.1133       	832.0407       	832.0492       	832.0066       	832.0579       	832.38226      	831.9112       	831.98663      	833.29504      	831.8919       	832.04114      	833.0118       	833.18335      	833.1762       	833.1058       	832.1042       	831.8421       	833.2781       	832.88617      	833.02374      	832.94574      	833.1091       	833.08014      	832.823        	832.9073       	832.90656      	832.91956      	832.6591       	832.6023       	832.683        	832.8063       	831.5342       	831.8878       	831.54175      	832.0763       	831.62177      	831.4942       	831.4938       	832.6565       	831.5645       	831.53314      	832.08875      	831.68225      	831.57574      	831.5284       	832.0314       	831.64386      	831.5803       	832.061        	831.69183      	831.6492       	831.5769       	832.02075      	831.6354       	831.7975       	831.7858       	831.6338       	
832.97363      	833.111        	833.10803      	832.8852       	832.78217      	832.9364       	832.0421       	832.7715       	832.7436       	833.0061       	832.6513       	832.60834      	832.97363      	832.90564      	832.9083       	832.7364       	832.8531       	832.72534      	832.69495      	832.5063       	832.3789       	832.6401       	832.7888       	832.6631       	832.32196      	832.29407      	832.16693      	832.5104       	832.32227      	832.5592       	832.52527      	832.58484      	832.45905      	832.79675      	832.58356      	832.8372       	832.82495      	832.9519       	833.16656      	833.02515      	833.277        	833.34753      	833.4359       	833.35004      	833.1032       	833.2822       	833.4541       	832.8422       	831.99133      	832.79156      	833.51117      	833.48035      	833.17786      	833.12994      	833.1801       	832.0048       	834.84607      	831.95483      	833.648        	833.3868       	833.3069       	832.9492       	833.06067      	832.87         	832.73785      	833.14606      	833.1107       	833.13464      	832.9743       	832.903        	832.95605      	832.8651       	832.8976       	833.1098       	832.5631       	831.5961       	832.2177       	831.56995      	831.5547       	832.0638       	831.6609       	831.5741       	831.9179       	831.70966      	831.6438       	831.55945      	832.54224      	831.7588       	831.6516       	832.1282       	831.8275       	831.7464       	831.676        	833.20953      	831.7894       	831.72723      	832.02673      	831.73804      	831.6979       	832.2838       	
833.0006       	833.2017       	833.0407       	833.1431       	833.61676      	831.7023       	832.9906       	831.6902       	831.9492       	831.621        	831.83374      	831.578        	832.78845      	832.8692       	833.06647      	832.75574      	832.89386      	832.6264       	832.82513      	832.8022       	832.8681       	832.59973      	832.6567       	832.53577      	832.62836      	832.39734      	832.26196      	832.66473      	832.47766      	832.56793      	832.55914      	832.57574      	832.79065      	832.61707      	832.901        	832.8409       	833.093        	833.24554      	833.2113       	833.20447      	833.37555      	833.4466       	833.4286       	833.5006       	833.42         	833.58325      	833.6264       	832.0634       	832.63586      	833.18677      	833.6251       	833.41473      	833.30414      	832.0077       	833.10547      	833.21204      	831.98254      	832.43726      	831.903        	833.26245      	832.94495      	833.32544      	833.1023       	833.17017      	833.0394       	833.1905       	832.7161       	832.8456       	832.57117      	832.42053      	831.6631       	832.0583       	832.657        	832.70844      	831.6866       	832.6797       	832.19556      	831.6555       	832.15234      	831.79553      	831.6833       	831.67285      	831.93353      	831.7602       	831.679        	832.234        	831.8191       	831.72375      	832.35767      	831.90717      	831.81635      	831.7265       	832.05035      	831.8236       	831.76886      	832.13336      	831.7811       	831.75305      	832.2154       	831.72174      	
832.722        	832.87463      	833.0499       	833.01227      	831.76404      	832.2161       	831.70447      	832.1318       	831.6969       	831.99054      	832.7512       	832.7937       	832.8118       	832.91644      	832.77576      	832.9336       	832.7995       	832.67346      	832.6117       	832.62634      	832.7911       	832.4589       	832.708        	832.4352       	832.57904      	832.551        	832.5654       	832.6341       	832.5483       	832.5511       	832.6705       	832.67426      	832.8086       	832.73364      	831.8608       	832.13324      	831.9876       	832.4247       	832.14526      	832.0724       	833.3027       	833.47375      	833.3747       	833.52893      	833.2921       	833.40533      	833.5443       	832.0153       	832.94275      	833.6111       	831.9587       	832.76074      	833.21423      	833.34247      	833.2815       	833.295        	833.2805       	833.2577       	833.0209       	833.5215       	833.31354      	833.3046       	833.25824      	833.0274       	832.9003       	833.0638       	832.969        	831.61005      	832.1212       	831.595        	831.8965       	831.7045       	833.14124      	832.54364      	832.56256      	831.67084      	832.17395      	831.6978       	831.6553       	831.9473       	831.75494      	831.6804       	832.1764       	831.82526      	831.7347       	831.676        	831.9294       	831.8267       	831.7314       	832.30896      	831.8538       	831.86163      	831.77563      	832.05664      	831.78674      	831.7708       	831.80945      	831.7418       	831.7219       	832.0016       	
833.02136      	832.9179       	832.96765      	832.9935       	832.98895      	832.54034      	832.9036       	832.6866       	832.87726      	832.86383      	832.7865       	832.887        	832.7546       	832.87396      	832.7224       	832.8002       	832.75037      	832.62415      	832.66406      	832.6854       	832.59985      	832.6654       	832.4082       	832.6127       	832.63025      	832.7024       	832.7142       	832.5655       	832.7012       	832.81537      	832.6305       	832.5088       	832.68616      	832.5806       	833.0038       	832.3122       	832.24536      	832.26575      	832.179        	832.3704       	832.2074       	832.6061       	832.1773       	833.2091       	833.5678       	833.2207       	832.25934      	833.05756      	833.1321       	833.46234      	832.44977      	831.9027       	834.64166      	831.9483       	832.1444       	832.0383       	831.94147      	832.62695      	833.2149       	833.2666       	833.47925      	833.18524      	833.0804       	832.9439       	832.9417       	832.9208       	831.7896       	832.84674      	832.683        	831.5986       	831.7909       	832.03253      	832.78253      	832.03546      	831.9033       	832.4469       	831.75336      	831.70337      	832.04193      	831.71716      	831.67035      	831.99677      	831.76074      	831.6699       	832.01764      	831.8249       	831.76636      	832.08         	831.86383      	831.85474      	831.8184       	833.9107       	831.81         	831.8196       	831.8464       	831.9541       	831.7504       	832.1571       	831.77563      	831.752        	
833.088        	833.0779       	832.9466       	833.2564       	833.20544      	833.0579       	833.08386      	832.79663      	832.8207       	833.02875      	833.1035       	833.0909       	833.0485       	833.0069       	832.98236      	833.06146      	832.7972       	832.8591       	832.80457      	832.96814      	832.9109       	832.79816      	832.8017       	832.8311       	832.8021       	832.828        	833.1405       	832.949        	833.0065       	832.97327      	833.00287      	832.86395      	833.1175       	833.1586       	832.33344      	833.35974      	832.4176       	832.9271       	832.36414      	832.44836      	832.3562       	832.3671       	833.5869       	832.2592       	832.59106      	832.33984      	833.54266      	833.7278       	833.4368       	833.6215       	833.4436       	833.59515      	833.7755       	833.3665       	833.9054       	833.4431       	833.45905      	833.26575      	833.3277       	833.5677       	833.5767       	833.62054      	833.31683      	833.3766       	832.9505       	831.97205      	832.0167       	831.9885       	832.2314       	832.98376      	833.05237      	833.25055      	832.8461       	832.9225       	832.1611       	832.40857      	832.026        	832.28845      	832.0599       	832.0199       	833.19305      	832.1186       	832.04034      	832.58813      	832.14557      	832.0781       	832.3106       	832.1856       	832.1423       	832.3294       	832.15265      	832.16766      	833.0143       	832.11316      	832.4818       	832.1227       	832.09576      	832.3983       	832.00464      	832.3431       	
833.2467       	833.42395      	833.26685      	833.28394      	833.36957      	833.09753      	833.2582       	833.19183      	833.318        	833.2558       	833.42224      	833.275        	833.2432       	833.30286      	833.1864       	833.3529       	833.1342       	833.19073      	833.1736       	833.08484      	833.1546       	832.94275      	833.1887       	832.95374      	832.8905       	832.8978       	833.14105      	833.3092       	833.0299       	833.3555       	833.68396      	832.58685      	832.814        	832.5354       	832.7667       	832.6035       	832.9873       	832.62024      	832.66705      	832.60095      	832.54224      	833.1129       	832.38385      	833.0175       	832.3185       	832.42834      	832.3753       	832.3765       	833.8503       	833.57294      	833.6738       	833.4343       	833.5691       	832.1389       	832.7637       	832.253        	833.4269       	833.1755       	833.3923       	833.40717      	833.48413      	831.974        	832.00366      	832.0128       	831.9523       	833.0945       	831.9776       	832.5393       	831.9939       	832.0063       	832.16956      	832.0504       	833.13434      	832.04175      	833.82556      	832.1106       	832.6173       	832.1657       	832.1615       	832.6122       	832.2236       	832.2051       	832.4951       	832.248        	832.22845      	832.16956      	832.6791       	832.2351       	832.18915      	832.72766      	832.148        	832.1436       	832.4967       	832.12317      	832.09576      	832.39197      	832.04193      	832.0753       	832.6195       	832.05707      	
833.1394       	833.16394      	833.20703      	833.2474       	832.9525       	833.18225      	833.2979       	832.92035      	833.1288       	833.1063       	833.16156      	833.068        	833.23346      	832.82477      	833.0772       	832.9782       	832.963        	833.09644      	832.99744      	832.9837       	833.09094      	832.9932       	832.7977       	832.98785      	832.9776       	833.0319       	833.2107       	833.2503       	833.29926      	833.2949       	833.09644      	833.4674       	832.35455      	833.1161       	832.4199       	832.48755      	832.4219       	833.3969       	832.34576      	832.8782       	832.26324      	832.79987      	832.3189       	832.71344      	832.10846      	832.82776      	832.1373       	833.4293       	833.70087      	833.47943      	833.4753       	833.5849       	833.2352       	833.2479       	833.4392       	833.523        	833.18317      	833.55817      	833.2553       	832.9948       	833.1562       	833.42896      	831.86285      	832.3927       	831.8366       	832.35535      	831.8845       	832.3744       	831.9187       	832.3588       	831.9397       	832.77576      	833.0795       	832.02765      	832.67285      	832.0611       	832.3886       	832.0979       	832.65454      	832.1727       	832.1526       	832.81805      	832.1788       	832.2276       	832.4727       	832.252        	832.2383       	832.23706      	832.4726       	832.21936      	832.2207       	832.9185       	832.1148       	832.11316      	832.66235      	832.10834      	832.0779       	832.80115      	832.0333       	832.0469       	
833.43787      	833.6933       	833.7969       	833.6272       	833.8672       	833.6715       	833.7051       	833.7301       	833.6581       	833.60254      	833.85614      	833.6237       	833.88293      	833.7053       	833.57806      	833.712        	833.5398       	833.5453       	833.7169       	833.73755      	833.68097      	833.60645      	833.52203      	833.5388       	833.8987       	833.8702       	834.0238       	833.91174      	834.06836      	834.0278       	834.06384      	834.04626      	834.3028       	834.22064      	833.11163      	833.62665      	833.05835      	833.65076      	832.97986      	833.82513      	834.3227       	833.9382       	834.0128       	832.87067      	833.44055      	832.73346      	833.94434      	834.1593       	834.3058       	833.9892       	834.0222       	834.1555       	834.1253       	833.9072       	834.0611       	834.17426      	833.8603       	833.9319       	834.01135      	833.9745       	833.8434       	833.9251       	832.464        	832.49243      	832.66077      	832.5029       	832.6855       	833.0114       	832.62103      	833.0947       	832.76105      	832.59705      	834.15234      	834.04175      	833.8898       	833.7401       	833.04675      	832.7587       	833.6722       	832.7978       	833.2512       	832.805        	832.8097       	833.3643       	832.8344       	832.7898       	833.41833      	832.7594       	832.7821       	833.3093       	832.74066      	832.8115       	833.21246      	832.80316      	832.76794      	833.39294      	832.6772       	832.70386      	833.1546       	832.6041       	
834.0128       	833.8975       	834.3369       	833.10126      	833.1815       	833.47156      	833.03094      	834.37274      	834.05695      	834.2358       	834.19824      	834.30786      	834.16797      	834.17847      	834.0905       	834.2748       	834.15094      	833.86127      	834.0504       	834.2509       	834.1325       	834.20245      	834.02527      	834.3103       	834.3116       	834.4542       	834.46423      	834.45026      	834.6511       	834.5172       	834.55817      	834.7416       	834.87         	834.8456       	833.82196      	833.63196      	833.45496      	833.4684       	834.5852       	834.7528       	834.725        	834.7617       	834.7048       	834.2083       	834.763        	833.8365       	833.24255      	834.11786      	834.46625      	834.4076       	834.28625      	834.24927      	834.23083      	834.4798       	834.112        	834.1942       	834.3392       	834.22266      	834.2806       	834.0198       	834.26984      	834.0876       	834.4032       	832.8477       	833.0641       	832.84375      	835.62604      	833.067        	833.53156      	833.0579       	833.4716       	833.92957      	833.0939       	833.5847       	833.2496       	834.0061       	834.1487       	834.3756       	834.5157       	834.31244      	833.2295       	833.1788       	833.49054      	833.165        	833.1528       	833.6335       	833.13403      	833.1658       	833.8382       	833.14636      	833.1709       	833.6536       	833.09753      	833.13904      	833.65326      	833.0706       	833.597        	832.98035      	833.48083      	833.9386       	
834.1435       	834.2035       	834.25464      	834.28296      	834.54944      	833.33374      	833.32336      	834.2203       	834.18225      	834.2419       	834.3051       	834.43134      	834.45355      	834.38605      	834.1529       	834.49976      	834.28577      	834.3665       	834.3419       	834.53815      	834.36926      	834.567        	834.398        	834.52985      	834.7344       	834.7276       	834.8075       	834.7649       	834.9128       	834.8038       	835.27026      	835.23883      	835.122        	835.0255       	834.83075      	834.78253      	834.89166      	834.62195      	835.18396      	834.91284      	834.8051       	834.6609       	834.6991       	834.89325      	834.67224      	834.8857       	833.2073       	833.6941       	833.5879       	834.5225       	834.58435      	834.053        	834.4561       	834.5564       	834.4657       	834.7128       	834.66284      	834.3538       	834.37976      	834.61584      	834.52484      	834.60535      	834.68805      	833.5014       	833.27203      	833.56305      	833.4091       	833.9023       	833.2517       	833.47687      	833.3507       	833.75574      	833.5212       	833.4827       	834.19525      	833.47424      	834.3074       	834.85547      	833.4847       	834.36206      	834.81226      	833.63824      	833.9428       	833.62506      	833.7416       	833.6621       	833.6292       	834.1739       	833.6871       	833.66254      	834.1137       	833.3769       	833.40875      	833.6302       	833.3116       	833.8642       	833.2535       	833.6566       	834.4784       	834.62836      	
834.17456      	834.0785       	834.40894      	833.3516       	833.2826       	833.79034      	833.37         	833.2709       	834.4945       	834.3816       	834.0289       	833.349        	833.7412       	833.39777      	833.71594      	833.4954       	834.164        	834.1399       	834.0739       	834.3671       	834.33466      	834.4483       	834.78723      	834.52313      	834.6048       	834.64655      	834.7379       	834.8473       	834.7666       	834.83453      	834.864        	835.19446      	835.0536       	835.0153       	835.138        	834.96155      	835.0215       	834.80945      	835.0613       	834.9901       	834.707        	834.4608       	834.3763       	834.4015       	834.3959       	834.56067      	834.37305      	834.0154       	834.1488       	834.40686      	834.0242       	834.1575       	834.42035      	834.0065       	834.0183       	834.2615       	834.219        	834.13025      	834.00525      	834.19006      	834.09924      	834.09534      	833.9024       	833.9346       	833.05316      	833.6142       	833.1632       	833.03625      	833.3415       	833.12994      	835.3318       	833.2123       	833.58167      	833.23083      	834.41864      	834.4993       	834.3044       	834.40393      	834.37494      	834.6644       	834.59607      	834.3738       	833.5042       	833.30884      	833.5834       	833.12134      	833.45807      	833.04114      	833.08136      	833.6954       	833.0782       	834.0946       	834.41254      	832.99225      	833.8939       	833.9557       	834.27185      	834.09644      	834.2311       	834.06934      	
833.5401       	833.26355      	833.1142       	833.0646       	833.37866      	833.31836      	833.16705      	833.1794       	834.3066       	833.1272       	833.51825      	833.34216      	833.2829       	833.3473       	833.4032       	834.18835      	834.16675      	834.33563      	834.0281       	834.3399       	834.4568       	834.4183       	834.31635      	834.2067       	834.526        	834.45105      	834.5897       	834.4355       	834.7608       	834.7023       	834.89685      	834.536        	835.01587      	834.94946      	834.7522       	834.8492       	834.67865      	834.6          	834.6272       	834.3909       	834.26086      	834.3351       	834.22766      	834.35034      	834.35114      	834.3184       	832.71136      	833.7867       	833.31866      	832.6586       	833.04944      	833.80066      	833.9251       	833.9368       	833.8772       	834.02905      	834.06         	834.10223      	833.7892       	834.1309       	834.1612       	834.0556       	834.00977      	834.1192       	833.6775       	832.9382       	833.17975      	832.97876      	833.0033       	833.1302       	833.0258       	833.4911       	834.1244       	834.2987       	834.1681       	834.37665      	834.3692       	834.4218       	834.59705      	834.52057      	834.42975      	834.3183       	834.40955      	834.06805      	833.0495       	833.13403      	833.52185      	833.09094      	833.16003      	833.5179       	833.0651       	833.3712       	832.9695       	832.99677      	833.14166      	832.8775       	833.86456      	834.1849       	834.06195      	834.0604       	
834.44434      	833.38153      	833.3314       	833.3224       	833.6774       	833.4232       	833.40393      	833.8714       	833.3892       	833.3446       	833.87885      	833.6278       	833.53485      	833.8596       	833.4418       	834.127        	833.4778       	834.1315       	833.4046       	834.6518       	834.5663       	834.5436       	834.5693       	834.4804       	834.85736      	834.7024       	834.8095       	834.80774      	834.8101       	834.7403       	834.7742       	834.99097      	835.0869       	834.98737      	835.0647       	834.75006      	834.93207      	834.68823      	834.7177       	834.6042       	834.50885      	834.4449       	834.3958       	834.22235      	834.43427      	834.237        	834.2589       	834.27844      	834.3327       	834.0788       	834.1051       	834.0139       	834.05035      	833.99817      	834.14935      	834.3747       	834.16595      	834.1974       	834.42584      	834.3291       	834.047        	834.5883       	834.30396      	834.154        	834.6807       	833.47687      	833.24585      	835.3503       	833.32117      	835.6866       	833.69275      	834.5251       	834.532        	834.5508       	834.6569       	834.99677      	834.8149       	834.74         	834.7705       	834.7123       	834.6313       	834.72455      	833.57025      	834.02075      	833.48755      	833.4528       	833.54614      	833.44543      	833.86395      	833.412        	833.9843       	833.3485       	833.3477       	833.93176      	833.41046      	833.69696      	834.602        	834.6637       	834.4778       	834.2397       	
833.5741       	833.5896       	833.9097       	833.62585      	833.6          	833.5371       	837.85284      	833.6349       	833.62396      	834.0106       	833.6946       	833.6937       	834.2376       	833.74207      	833.7171       	834.62396      	833.82263      	834.2177       	833.9203       	833.80426      	835.0743       	834.73816      	835.02527      	834.7688       	834.9506       	834.9398       	834.8343       	835.18427      	834.83136      	835.0875       	834.795        	835.32654      	835.19946      	834.7942       	834.33215      	834.6654       	834.946        	834.8904       	834.4599       	834.7835       	834.56415      	834.4933       	834.46875      	834.1          	834.27484      	834.4307       	834.4571       	834.1235       	834.2513       	834.31415      	834.185        	834.07935      	834.07825      	834.08136      	834.0943       	834.05524      	834.2389       	834.49115      	834.4042       	834.51074      	834.4964       	834.61725      	834.4739       	834.4936       	834.5703       	834.44147      	834.60925      	834.2243       	834.2725       	834.44965      	834.6647       	834.7878       	833.9733       	834.6764       	834.7226       	835.0445       	834.43713      	834.61316      	834.70404      	834.807        	834.8272       	834.787        	834.7562       	833.9643       	833.518        	833.8326       	833.3649       	833.5908       	833.3837       	833.3038       	833.9333       	833.31274      	833.3437       	833.5087       	833.28357      	833.5673       	834.0794       	834.3141       	834.2302       	834.2485       	
833.4205       	834.0726       	838.37726      	833.3344       	833.40295      	833.45215      	833.7308       	833.36426      	833.4154       	833.489        	838.5016       	833.3707       	833.4639       	833.9414       	833.37054      	833.4973       	834.20056      	833.47626      	833.5388       	833.8904       	833.5565       	833.60895      	834.49286      	834.8597       	834.7068       	834.8199       	834.6771       	834.88293      	834.5856       	833.4758       	833.411        	834.7862       	834.93835      	833.1851       	833.8964       	833.04266      	834.22943      	834.2867       	834.2091       	834.4275       	834.3223       	834.197        	834.15344      	833.7773       	833.9173       	834.0011       	833.9988       	833.4913       	834.1539       	833.66656      	832.7855       	833.89294      	834.08075      	833.79285      	833.9866       	833.6903       	833.9813       	834.0547       	834.1146       	834.3972       	834.0745       	834.3396       	834.2539       	834.4128       	833.93524      	833.989        	833.93933      	833.1404       	833.48425      	834.1742       	834.3915       	833.5927       	833.4625       	834.66895      	834.5726       	834.51086      	834.77795      	834.70184      	834.75073      	834.4534       	834.4733       	834.49207      	834.5798       	834.4218       	833.11145      	833.73444      	833.002        	833.67096      	832.9948       	833.0182       	833.50726      	832.958        	833.0063       	833.193        	832.9385       	833.5035       	832.9267       	833.4701       	832.91595      	833.6309       	
833.36224      	833.3575       	834.08215      	833.3708       	833.33606      	833.3841       	834.03217      	833.3083       	833.3772       	833.4072       	833.3038       	833.32855      	833.98663      	833.339        	833.43744      	833.96594      	833.4316       	833.4961       	834.2434       	833.4677       	833.8352       	834.76917      	834.4247       	834.73114      	835.0471       	834.8113       	834.61334      	834.3478       	833.4464       	833.4159       	833.3043       	834.0621       	833.1123       	833.5515       	833.0435       	834.3962       	834.50055      	834.6609       	834.2451       	834.1824       	834.27875      	834.14746      	834.15375      	834.13416      	834.1133       	834.03845      	833.87305      	833.6276       	832.70795      	833.7578       	833.59247      	833.8128       	833.64557      	833.81665      	834.0359       	834.17645      	834.2169       	834.17255      	834.37366      	834.22144      	833.9791       	834.7475       	834.53735      	834.36957      	834.20825      	834.35156      	834.48804      	834.13184      	834.32477      	834.56177      	834.76074      	834.6751       	834.47955      	834.5788       	834.75287      	834.8912       	834.83923      	834.9293       	834.72723      	834.4897       	833.61206      	833.2204       	834.7416       	834.16156      	833.3811       	833.12885      	833.81177      	833.07086      	833.75         	833.003        	833.0388       	833.4778       	832.9489       	832.9958       	833.4371       	832.9558       	834.71106      	832.94147      	833.2988       	832.8959       	
833.38184      	833.43945      	834.0352       	833.3891       	833.3775       	833.40875      	833.60455      	833.4244       	833.52826      	833.35394      	833.40015      	834.0215       	833.34094      	833.5823       	833.4869       	833.4498       	834.1305       	833.3803       	833.47174      	833.7485       	833.4983       	834.66473      	834.75415      	835.02997      	834.58093      	834.65125      	833.8297       	833.4434       	833.2346       	833.2868       	833.1944       	833.0954       	833.33466      	832.8685       	833.42664      	832.8976       	834.0729       	834.1455       	834.16833      	834.2018       	834.0873       	833.9935       	834.07025      	834.08746      	834.00323      	833.8759       	833.4531       	833.5356       	833.87823      	833.9249       	833.64874      	834.0283       	833.74243      	833.9636       	833.8935       	834.1758       	834.04333      	834.1169       	834.30334      	834.338        	833.67444      	833.1592       	833.6261       	833.1648       	834.3901       	833.6874       	833.34235      	833.32166      	834.3519       	834.5852       	834.46497      	834.59485      	834.58307      	834.69977      	834.7692       	834.7461       	834.99554      	834.74567      	834.598        	834.55347      	834.64996      	834.6609       	833.1517       	833.2523       	833.1229       	833.1374       	834.56287      	833.0748       	833.5123       	832.9938       	833.6917       	833.04297      	832.97845      	833.3865       	832.95105      	832.9896       	833.1771       	832.9482       	833.26245      	832.94305      	
833.6462       	834.56146      	835.0995       	835.08203      	834.8065       	833.7396       	833.60925      	833.9722       	833.46356      	833.5837       	834.0199       	833.56976      	834.2528       	835.0866       	833.574        	834.21356      	833.5696       	833.65796      	834.29926      	833.6251       	834.198        	834.75073      	834.91956      	834.9622       	835.2786       	834.84827      	833.52563      	833.93567      	833.41595      	833.87006      	833.20087      	833.3419       	833.24066      	833.0917       	833.7773       	833.0767       	833.4333       	834.16345      	834.4884       	834.4032       	834.28217      	834.2203       	832.93774      	835.4469       	833.0853       	833.08765      	833.35675      	834.2386       	834.32166      	833.27203      	833.8288       	834.3509       	835.1347       	833.26         	834.52106      	833.92395      	833.39087      	833.5299       	833.4558       	833.537        	833.93396      	833.56415      	833.5598       	833.6054       	833.5214       	834.01855      	833.5443       	834.10846      	833.5779       	834.35376      	834.8912       	834.9516       	835.0903       	834.8849       	835.10535      	835.07574      	835.09174      	834.97687      	835.1622       	834.9733       	834.92786      	834.8222       	834.79193      	833.43524      	834.1609       	833.3397       	833.4648       	833.5538       	833.3626       	834.05664      	833.32263      	833.33997      	833.69366      	833.3775       	833.9046       	833.3698       	833.3777       	834.3317       	833.3735       	833.86127      	
835.30334      	835.4722       	835.54254      	835.36206      	834.9247       	833.9593       	834.042        	834.2808       	833.893        	834.1699       	833.86597      	833.94763      	834.07544      	833.8959       	834.5773       	833.86224      	833.9944       	834.4233       	833.8956       	834.22424      	835.1998       	835.06476      	835.1266       	835.3822       	835.5421       	834.97723      	833.91644      	834.0746       	833.7851       	834.0687       	833.4979       	833.711        	833.3686       	833.4228       	834.08105      	833.2867       	833.8407       	833.30664      	834.6442       	834.93463      	834.3443       	834.6249       	835.8985       	833.2186       	834.3874       	834.61945      	834.26746      	834.0898       	834.68195      	833.4181       	833.7942       	833.4794       	834.40125      	834.6661       	834.74164      	834.8004       	834.6208       	833.6456       	834.05817      	833.7125       	833.95447      	833.74615      	834.1996       	833.72656      	833.71576      	833.8734       	833.6728       	834.18567      	833.7135       	834.35657      	834.04596      	834.8595       	835.151        	835.1471       	835.10284      	835.26746      	835.27496      	835.3261       	834.9569       	834.9378       	834.9697       	836.82104      	833.4701       	834.29016      	833.4814       	833.5616       	833.6553       	833.4616       	834.0982       	833.41473      	833.49963      	833.80597      	833.4812       	834.10675      	833.4375       	833.4391       	834.67957      	833.5336       	833.95074      	833.5463       	
835.13666      	835.18744      	834.8461       	834.11523      	833.65027      	833.75446      	834.1638       	833.62537      	833.76337      	836.64655      	833.52356      	833.7128       	833.71124      	833.60406      	834.10364      	833.5836       	833.7154       	833.7312       	833.6682       	835.0033       	834.9716       	835.17865      	834.9094       	835.1178       	834.94214      	833.5813       	834.1349       	833.43915      	833.805        	833.344        	833.7413       	833.1964       	833.2522       	834.21576      	833.0781       	833.1942       	833.16614      	833.08453      	834.6094       	834.5484       	834.2626       	834.2138       	833.2183       	834.0036       	834.67566      	834.50934      	834.27875      	834.4547       	834.6357       	834.44         	834.6374       	834.35         	834.51117      	834.56573      	834.7575       	834.72125      	834.8559       	833.65326      	833.9644       	833.65784      	834.0961       	833.7091       	834.2512       	833.7094       	834.18317      	833.6364       	833.94403      	833.6648       	835.09485      	835.0426       	835.0492       	835.0895       	835.00854      	835.03503      	835.18616      	835.1751       	834.8666       	835.078        	834.8129       	834.69434      	834.8966       	833.4063       	833.847        	833.3386       	833.96625      	833.37195      	833.39417      	833.49945      	833.3544       	833.81934      	833.3574       	833.8523       	833.38086      	833.377        	834.17523      	833.3799       	833.9017       	833.4053       	833.8183       	833.4516       	
834.1289       	834.9205       	834.76697      	833.5882       	833.61884      	833.71686      	834.1005       	833.5508       	833.74207      	833.60297      	833.5517       	834.0245       	833.48914      	833.62415      	833.62604      	833.5657       	833.9641       	833.60156      	834.8739       	834.1513       	835.0085       	834.8212       	834.7462       	834.8323       	835.16705      	834.5388       	833.6081       	833.47546      	833.5219       	833.36194      	833.3458       	833.321        	833.51245      	833.1279       	833.57904      	833.13995      	833.23285      	833.27734      	833.44934      	834.3945       	834.3939       	834.3122       	834.48663      	834.21747      	834.2965       	834.37134      	834.50104      	834.4603       	833.42773      	833.9395       	833.8302       	834.4786       	834.59045      	834.7023       	834.70154      	834.6741       	833.77484      	834.184        	833.84174      	834.2038       	833.73145      	833.68317      	833.90094      	833.68524      	834.2395       	833.64233      	834.0598       	833.61285      	834.6614       	834.9352       	834.9098       	835.05707      	835.12164      	835.1026       	835.05536      	835.04755      	835.1674       	834.9366       	835.0294       	833.4315       	833.89996      	833.5758       	834.019        	833.41077      	833.3482       	836.7789       	833.3158       	833.7494       	833.2711       	833.93274      	833.30505      	833.51013      	833.43945      	833.3346       	834.06024      	833.3429       	833.6445       	833.3337       	833.70374      	833.3853       	
833.54395      	833.65625      	834.0741       	833.4194       	833.4831       	833.6426       	834.0727       	833.4056       	833.5426       	833.57837      	833.3522       	833.67676      	833.3047       	833.41766      	833.82043      	833.3736       	834.31555      	834.66296      	834.67004      	834.7355       	834.48004      	834.5954       	834.72046      	834.66534      	834.59985      	833.4994       	833.2566       	833.7914       	833.2074       	833.42126      	833.10944      	833.64954      	833.0704       	833.22986      	833.10504      	832.9988       	834.02075      	832.98206      	834.14056      	833.9671       	834.1972       	834.2667       	834.35675      	834.4304       	834.1366       	834.29816      	833.3568       	834.0435       	833.7441       	834.50287      	834.3796       	833.99384      	833.8728       	833.68195      	834.06976      	833.6748       	833.9489       	833.669        	834.09186      	833.64087      	834.11536      	833.62396      	833.6303       	833.75024      	833.61206      	834.1404       	833.65076      	834.1693       	834.613        	834.9441       	835.17804      	835.00885      	834.9372       	834.89124      	834.89703      	834.7591       	835.02234      	835.0427       	834.9105       	834.5013       	834.5947       	833.84753      	833.31274      	836.7782       	833.2104       	833.851        	833.21674      	833.8803       	833.2748       	833.7235       	833.3272       	833.70496      	833.38306      	833.3352       	833.7777       	833.352        	834.4974       	834.4965       	834.67944      	834.3411       	
833.58813      	834.36743      	833.41016      	833.4434       	833.5279       	834.09467      	833.305        	833.46814      	834.0001       	833.2815       	833.4385       	833.4019       	833.3714       	834.44653      	833.3756       	834.74304      	834.6739       	834.6582       	834.78845      	834.92523      	834.9562       	834.46295      	834.37134      	834.28674      	834.5559       	834.5043       	834.47455      	833.39453      	833.10297      	833.4951       	833.0586       	833.20715      	833.0065       	833.1859       	832.9729       	833.2725       	833.321        	833.82074      	834.3602       	834.3474       	834.1451       	834.3263       	834.30554      	834.3596       	834.152        	834.35535      	834.54596      	834.33         	834.4548       	834.5364       	834.6653       	834.5194       	834.936        	834.6201       	834.4254       	833.78784      	833.94183      	833.97626      	836.54645      	833.61334      	833.7704       	834.05334      	833.4947       	834.29517      	834.8985       	834.901        	834.73645      	834.63464      	834.97614      	834.5674       	834.5431       	834.6895       	835.0945       	834.5888       	834.6935       	834.74915      	834.6437       	834.73175      	834.944        	834.6077       	834.83716      	834.71716      	833.0797       	833.23737      	833.15765      	833.4567       	833.12195      	833.10535      	833.8666       	833.089        	833.69574      	833.1494       	833.4329       	833.1353       	834.0815       	833.2155       	834.26166      	834.4851       	834.343        	834.44885      	
833.3134       	833.62634      	832.99304      	833.10803      	833.26294      	833.5905       	833.0193       	833.1732       	833.8319       	832.95184      	833.47473      	832.9072       	833.02124      	834.26086      	832.9153       	833.2726       	833.12506      	834.25903      	834.5536       	834.4413       	834.0185       	834.05505      	834.3633       	833.87494      	834.00256      	834.27527      	832.81976      	833.22595      	832.735        	833.12463      	832.78815      	832.91656      	832.8185       	832.67816      	833.0924       	832.72784      	833.119        	832.814        	832.9032       	833.5817       	834.0725       	833.97894      	834.02484      	834.26404      	833.9841       	835.3315       	833.38074      	833.969        	833.49585      	833.75055      	834.4737       	834.2083       	834.1891       	834.20337      	833.41516      	833.4138       	833.67084      	833.2911       	833.64417      	833.25574      	833.86554      	833.18695      	834.0821       	834.6614       	834.6187       	834.5801       	834.3383       	834.5999       	834.572        	834.4233       	834.56244      	834.67505      	834.37305      	834.6029       	834.3711       	834.50586      	834.4363       	834.4562       	834.4205       	834.5909       	834.42914      	834.2374       	833.9892       	832.92975      	833.7999       	834.06335      	832.9579       	833.5192       	834.2774       	832.99744      	833.38214      	834.3649       	833.936        	833.1823       	834.09735      	834.2327       	834.36816      	834.1839       	833.99097      	834.2172       	
836.9734       	833.0134       	833.0206       	833.1018       	833.72614      	832.8259       	832.9743       	833.45776      	832.85114      	833.00494      	832.90753      	832.9447       	834.0067       	832.8893       	833.376        	832.9218       	834.3691       	833.9513       	834.1702       	834.3072       	834.31964      	834.1853       	833.8347       	833.86         	832.89496      	833.3681       	833.5951       	832.76855      	833.16693      	833.6773       	832.70856      	832.98364      	832.8499       	832.7214       	833.35443      	832.7978       	834.06146      	833.8692       	833.8814       	833.78186      	834.12683      	834.2044       	834.26245      	834.2457       	834.3137       	834.43695      	834.28906      	834.3815       	834.4026       	834.3606       	834.59796      	834.51074      	833.46906      	833.91956      	833.4394       	834.2808       	833.94525      	833.8938       	833.3346       	833.7878       	833.28845      	834.2074       	834.6941       	834.5387       	834.67535      	834.5297       	834.52216      	834.81116      	834.4684       	834.5872       	834.6907       	834.6          	834.49274      	834.5075       	834.4239       	834.3256       	834.5274       	834.4483       	834.37463      	834.6621       	834.4234       	834.39417      	833.706        	832.98206      	833.32         	833.561        	832.9782       	833.3976       	833.0162       	833.4226       	833.01324      	833.35345      	833.0134       	833.3966       	833.0882       	834.3433       	834.39685      	834.21344      	834.2527       	833.9932       	
833.42816      	833.1204       	833.1687       	833.34235      	833.48035      	833.08923      	833.2511       	833.2545       	833.0808       	833.5954       	833.04517      	833.1808       	833.45844      	833.143        	833.47253      	833.6246       	834.25354      	834.69403      	834.4538       	834.6767       	834.44727      	834.33246      	834.1247       	834.0028       	834.1038       	834.4096       	834.44995      	834.1516       	833.88446      	833.2423       	833.02045      	833.4398       	833.1371       	833.15814      	833.464        	833.1614       	834.2881       	834.3727       	834.2125       	834.13794      	834.3726       	833.3231       	834.40894      	834.6607       	834.25195      	834.77637      	834.60016      	834.5996       	834.9154       	834.6052       	834.7204       	834.77216      	834.72766      	833.9153       	833.7458       	834.385        	833.95416      	834.99524      	833.60254      	834.20496      	833.5067       	834.555        	835.08264      	834.8411       	834.9772       	834.7025       	834.6122       	834.7367       	834.89075      	834.7705       	834.7229       	834.5357       	834.9269       	834.8588       	834.7091       	834.78973      	834.81586      	834.7384       	834.846        	834.90765      	834.67786      	834.72003      	834.75964      	834.4111       	833.3317       	833.74384      	833.953        	833.32227      	833.38         	833.29755      	834.07196      	833.31946      	834.5523       	834.7676       	834.47406      	834.48303      	834.83246      	834.4893       	834.69495      	834.56274      	
833.2444       	833.3352       	833.4125       	833.78845      	833.17224      	833.2504       	833.77795      	833.1858       	833.6062       	833.2987       	833.23425      	834.2686       	834.6983       	834.6471       	834.8331       	834.6768       	834.63         	834.7409       	834.78394      	834.70087      	834.64233      	834.83636      	834.62585      	834.5636       	834.5973       	834.56384      	834.6747       	834.3594       	834.63477      	834.6996       	834.3679       	834.2988       	834.2366       	834.4577       	834.5292       	834.4141       	834.4403       	834.2349       	834.441        	834.4033       	833.55725      	834.4782       	834.7934       	834.8119       	834.8769       	835.0852       	834.71783      	835.10315      	835.03455      	834.91315      	835.1341       	835.33386      	833.8933       	835.0123       	834.4491       	834.40875      	834.8382       	833.77576      	834.1826       	834.74664      	835.1482       	834.8034       	835.0296       	834.9033       	835.0803       	834.8109       	834.8392       	834.7776       	834.95276      	835.07007      	834.8524       	834.9568       	834.96027      	834.79486      	834.9825       	834.8971       	834.8734       	834.99         	835.0736       	834.74316      	834.84973      	834.82477      	834.5248       	834.6564       	833.3705       	834.3888       	834.57605      	835.837        	833.66046      	834.47656      	834.90955      	834.7766       	834.80865      	834.8454       	834.73627      	834.6807       	834.68823      	834.6289       	834.91516      	835.0195       	
833.05804      	833.15015      	833.186        	833.8199       	833.0302       	833.09216      	833.5807       	833.06213      	833.10645      	833.5133       	833.09625      	833.1815       	834.6404       	834.4981       	834.7969       	834.64264      	834.5314       	834.58777      	834.7054       	834.80304      	834.4667       	834.426        	834.6299       	834.5987       	834.52985      	834.47644      	834.56445      	834.34406      	834.16693      	834.24994      	833.36176      	833.3827       	833.5891       	833.345        	833.65344      	833.33405      	833.6178       	834.28845      	834.3532       	834.5264       	834.45154      	834.8583       	834.53516      	834.7539       	834.82477      	834.93         	834.8457       	834.994        	835.07385      	834.9401       	834.9224       	834.9345       	834.8239       	834.80176      	835.2532       	834.9091       	834.9225       	834.5638       	834.8565       	834.9114       	834.70776      	834.83704      	834.90265      	834.7938       	834.7485       	834.6773       	834.7893       	834.5956       	834.65906      	834.68567      	834.75336      	834.79675      	834.5925       	834.607        	834.863        	834.7074       	834.74744      	834.673        	834.6879       	834.67413      	834.7369       	834.6235       	834.7792       	834.46063      	834.61786      	834.6804       	834.4912       	834.3633       	834.4079       	834.6542       	834.5814       	834.4596       	834.6246       	834.38855      	834.59174      	834.407        	834.73425      	834.44055      	834.7452       	834.4806       	
833.13367      	833.129        	832.9198       	832.92456      	832.9163       	832.99536      	833.4635       	832.86566      	832.89185      	833.4018       	832.92255      	832.89886      	833.57434      	833.0124       	833.01624      	834.2097       	834.27826      	833.99225      	834.3729       	834.40717      	834.681        	834.08496      	834.3534       	834.3988       	834.37274      	834.31055      	834.13513      	833.3454       	833.1507       	833.4633       	833.3076       	833.70056      	833.45514      	833.2853       	833.63776      	833.46246      	833.8086       	833.5498       	833.3848       	833.8893       	834.05365      	834.588        	835.0114       	834.74805      	834.5367       	834.76324      	834.7465       	834.9711       	835.16925      	834.80927      	834.9517       	835.12866      	835.1518       	835.0159       	834.879        	833.48175      	834.49347      	833.5638       	834.79663      	834.4646       	834.35785      	834.46234      	834.838        	834.505        	834.5131       	834.69714      	834.4692       	834.54956      	834.6214       	834.5456       	834.43787      	834.44867      	834.39777      	834.4097       	834.24994      	834.62933      	834.3529       	834.43134      	834.5097       	834.4106       	834.5794       	834.52277      	834.5355       	834.56354      	834.2712       	834.4262       	834.585        	834.3825       	834.4063       	834.4784       	834.3939       	834.4847       	834.53186      	834.51337      	834.4724       	834.37244      	834.5145       	834.3691       	834.4921       	834.66956      	
832.87085      	832.879        	832.88196      	833.7296       	833.1353       	832.9262       	832.8346       	832.8516       	833.21356      	832.9765       	832.9001       	832.9602       	833.1374       	833.0115       	832.9721       	834.13293      	833.02545      	834.1647       	834.4749       	834.3845       	834.2874       	834.35864      	834.2455       	834.4001       	834.3557       	834.48035      	833.67084      	833.17865      	833.6554       	833.2772       	833.1109       	833.6214       	833.32416      	833.8376       	833.44574      	833.337        	833.91003      	833.4791       	833.4229       	833.6469       	833.4095       	834.4893       	834.5727       	834.8155       	834.74115      	834.7571       	834.96216      	835.01587      	834.9309       	834.9505       	835.09576      	834.835        	834.93164      	834.76294      	834.885        	833.3907       	833.94696      	833.6098       	833.71497      	833.2175       	833.60547      	834.595        	834.54974      	834.1533       	834.34094      	834.0248       	834.4734       	834.1993       	834.49615      	834.2857       	834.55115      	834.6145       	834.40424      	834.5601       	834.6044       	834.3952       	834.4544       	834.55286      	834.7105       	834.4687       	834.57074      	834.3408       	834.4078       	834.50104      	834.5025       	834.46185      	834.14526      	834.4883       	834.41113      	834.4026       	834.33234      	834.60046      	834.49097      	834.4809       	834.30676      	834.57837      	834.2944       	834.2946       	834.5355       	834.35016      	
834.19495      	832.91016      	832.8103       	832.7232       	832.66864      	832.629        	833.12006      	832.8274       	832.67523      	832.65356      	833.4646       	832.8718       	832.7742       	832.7259       	833.40125      	832.8559       	832.77106      	833.19324      	832.9166       	832.86304      	834.1149       	833.8883       	833.93414      	833.99695      	834.2262       	834.1721       	834.62946      	833.0558       	833.4745       	833.1397       	833.32227      	833.32965      	833.16736      	833.40393      	833.24945      	833.1881       	833.80066      	833.1806       	833.3902       	833.3023       	833.5066       	834.4441       	834.24506      	834.51556      	834.296        	834.5843       	834.49817      	834.69275      	834.72626      	834.7743       	834.7218       	834.704        	834.6964       	834.6703       	834.4148       	834.50006      	834.01636      	834.3303       	834.2288       	833.9517       	834.1436       	834.19965      	834.27075      	834.1084       	834.1279       	834.14026      	834.17706      	834.0263       	834.1049       	834.205        	834.0815       	834.2694       	834.14343      	834.1398       	833.9735       	834.2354       	834.3933       	834.06195      	834.3895       	834.0268       	834.23083      	834.138        	834.0136       	834.1777       	834.444        	834.3115       	834.16516      	834.291        	834.3762       	834.35675      	834.0728       	834.32135      	834.21344      	834.2308       	834.1642       	834.2467       	834.1488       	834.04016      	834.2313       	834.24603      	
834.77155      	832.89734      	832.7597       	832.64154      	832.56573      	832.56384      	833.0463       	832.83655      	832.72375      	832.61237      	833.44867      	832.83685      	832.7725       	832.6931       	833.22864      	832.94604      	832.79895      	833.1218       	832.9308       	832.84265      	833.63416      	832.95734      	833.55804      	833.7804       	834.1173       	834.24176      	834.01636      	833.1058       	833.47974      	833.24384      	833.15845      	833.5336       	833.27185      	833.80273      	833.2774       	833.5592       	833.30444      	833.2938       	834.6611       	833.31696      	833.54486      	833.2602       	834.60516      	834.27936      	834.54913      	834.77374      	834.4157       	834.6988       	834.7204       	834.6874       	834.4664       	834.6931       	834.5045       	834.42175      	834.6251       	834.1918       	834.30896      	834.20776      	834.0508       	834.40564      	833.862        	833.9327       	834.3461       	834.3148       	833.8942       	834.1654       	834.09125      	834.1483       	834.13794      	834.0878       	834.14056      	834.1946       	834.05365      	834.1983       	834.0332       	834.08014      	834.2119       	834.236        	834.15875      	834.2025       	834.4031       	834.0989       	834.2315       	834.2018       	834.1311       	834.3906       	834.23175      	834.2384       	834.04156      	834.3665       	834.31665      	834.25494      	834.1949       	834.32776      	834.19507      	834.1899       	834.2582       	834.2693       	834.2856       	834.267        	
832.68164      	832.61694      	832.9929       	833.18005      	833.04095      	832.9066       	832.7724       	832.6648       	833.3737       	833.09985      	832.9817       	832.8258       	833.3276       	833.10583      	833.05133      	832.92395      	833.1855       	833.1298       	833.0605       	832.9646       	833.486        	833.1192       	833.031        	833.32825      	833.17615      	833.4958       	833.22156      	833.7998       	833.3149       	833.2055       	833.4238       	833.3324       	835.5145       	833.3659       	833.97955      	833.5014       	833.29517      	833.36816      	833.3486       	833.3212       	833.32605      	833.334        	834.972        	834.69617      	834.65295      	834.4537       	834.50104      	834.3397       	834.55664      	834.6381       	834.74554      	834.4831       	834.2855       	834.58344      	834.57043      	834.5805       	834.40656      	834.4597       	834.3627       	834.5573       	834.2449       	834.10944      	833.9271       	834.0983       	834.1664       	834.1617       	834.17444      	834.13275      	834.1709       	834.2304       	834.195        	834.0915       	834.026        	834.3307       	834.1947       	834.2553       	834.31824      	834.3679       	834.2433       	834.3518       	834.4669       	834.3463       	834.2304       	834.2051       	834.261        	834.3891       	834.2649       	834.3678       	834.307        	834.378        	834.3788       	834.20746      	834.2987       	834.3557       	834.35547      	834.30414      	834.36237      	834.3408       	834.36926      	834.22534      	
833.80005      	833.2859       	833.20447      	833.09644      	832.95483      	832.8188       	833.08264      	833.2331       	833.0944       	832.94073      	832.87067      	833.4626       	833.1959       	833.0908       	833.0004       	834.541        	833.2438       	833.1798       	833.10785      	834.11584      	833.2305       	833.1972       	833.5074       	833.30457      	833.25726      	833.5984       	833.3779       	833.3557       	833.7667       	833.3779       	833.8367       	833.3818       	833.441        	833.63416      	833.4059       	833.81805      	833.27094      	833.3778       	834.04663      	833.2344       	833.3772       	833.6515       	833.31274      	834.88696      	833.31305      	834.9587       	834.6397       	834.6749       	834.7494       	834.86255      	834.7588       	834.6759       	834.68713      	834.5199       	834.78656      	834.3938       	834.4378       	834.1992       	834.3571       	834.24524      	834.233        	834.1572       	834.248        	834.29596      	834.2073       	834.27045      	834.1988       	834.0982       	834.19836      	834.1887       	834.1595       	834.3138       	834.35535      	834.34406      	834.1423       	834.3058       	834.3397       	834.25616      	834.33         	834.2165       	834.53064      	834.26855      	834.2895       	834.39935      	834.3739       	834.345        	834.5137       	834.38477      	834.22614      	834.4037       	834.4444       	834.29236      	834.3264       	834.5269       	834.2229       	834.2599       	834.2781       	834.47656      	834.0282       	834.2133       	
833.3701       	833.31165      	833.2461       	833.09766      	832.9385       	833.11523      	833.39166      	833.3517       	833.20435      	833.01965      	833.5908       	833.3134       	833.21967      	833.1069       	833.08844      	833.3431       	833.3102       	833.3086       	833.19653      	833.50867      	833.4076       	833.3889       	833.80334      	833.3774       	833.38806      	833.5435       	833.4594       	833.4061       	833.65906      	833.4593       	833.4861       	833.7191       	833.474        	833.99133      	833.34674      	833.45013      	833.3007       	833.2204       	833.4079       	833.2906       	833.2891       	834.26794      	833.289        	833.7563       	833.2682       	833.8507       	833.46747      	834.7931       	835.06714      	834.4567       	834.619        	834.6642       	834.54565      	834.6331       	834.4854       	834.5601       	834.50555      	834.412        	834.3991       	834.2172       	834.2977       	834.0691       	834.23444      	834.1603       	833.9603       	834.07465      	834.1153       	834.0289       	834.204        	834.24866      	834.185        	834.18756      	834.3853       	834.24805      	834.4898       	834.3342       	834.47473      	834.2823       	834.3762       	834.35364      	834.374        	834.664        	834.35         	834.5332       	834.5114       	834.3738       	834.5432       	834.38727      	834.392        	834.3738       	834.4138       	834.436        	834.51636      	834.4906       	834.306        	834.80493      	834.07886      	834.1581       	834.33563      	834.4149       	
833.3063       	833.07324      	832.9656       	833.2488       	833.3602       	833.30695      	833.25006      	833.1422       	832.9979       	833.63745      	833.23914      	833.16797      	833.08         	833.66907      	833.15063      	833.20105      	833.1764       	833.0855       	833.2347       	833.1507       	833.29236      	833.5357       	833.20416      	833.2389       	833.2572       	833.3002       	833.2595       	833.8097       	833.31793      	833.3109       	833.4716       	833.2733       	833.8767       	833.20593      	833.9514       	833.01733      	833.1051       	833.57574      	832.92914      	833.0727       	834.1217       	832.9499       	833.4359       	832.90625      	833.834        	833.95636      	834.4737       	834.3933       	834.23376      	834.4053       	834.43365      	834.44934      	834.0157       	834.28625      	834.1094       	834.4277       	834.2416       	834.014        	833.93677      	834.1127       	833.9298       	833.7651       	834.0579       	833.7682       	833.7315       	834.06195      	833.8446       	833.98834      	833.99524      	833.99255      	834.0677       	834.0381       	834.1647       	834.1162       	834.0651       	834.18646      	834.16376      	834.1709       	834.1879       	834.0566       	834.002        	833.9678       	834.27374      	834.1723       	834.24133      	834.2977       	834.01404      	834.1947       	834.2156       	834.25397      	834.22656      	834.2245       	834.248        	833.99835      	834.2716       	834.02155      	834.41315      	834.37195      	834.3101       	834.35046      	
832.9303       	832.72626      	833.4097       	833.06775      	833.10474      	833.10065      	832.9898       	832.8786       	833.47         	833.05786      	833.0802       	832.9896       	832.8888       	833.5244       	832.98883      	832.98303      	833.00446      	833.3472       	832.9749       	833.06824      	833.0781       	833.0671       	832.90094      	833.0045       	833.081        	833.84576      	832.99426      	833.13385      	833.5365       	833.0446       	833.17505      	833.89264      	833.0449       	833.18176      	833.03375      	832.9561       	833.7592       	832.75916      	832.87976      	833.47516      	832.8041       	833.2936       	832.82025      	834.55316      	833.13043      	834.1446       	834.2988       	834.1132       	833.98254      	834.2412       	834.1126       	834.123        	833.9528       	834.0804       	834.0717       	834.0731       	834.0534       	833.93774      	833.89905      	834.042        	833.7413       	833.5778       	833.76825      	833.7479       	833.9092       	833.90454      	833.85516      	833.9784       	834.05664      	834.0006       	833.9704       	833.97955      	834.0837       	834.0655       	834.046        	834.151        	834.07623      	834.1648       	834.0205       	834.1225       	834.2115       	834.1347       	834.1316       	834.17957      	834.3113       	834.1726       	834.2255       	834.102        	834.069        	834.0417       	834.2605       	834.0981       	834.293        	834.0911       	834.0932       	834.2249       	834.2102       	834.3362       	834.44476      	834.3896       	
833.6476       	833.57465      	833.5177       	833.38873      	833.9454       	833.5235       	833.5904       	833.5202       	833.4114       	833.78625      	833.47015      	833.48535      	833.48895      	833.43005      	834.06665      	833.39856      	833.4667       	833.5273       	833.8656       	833.3202       	833.47424      	833.5842       	834.1373       	833.3129       	833.42645      	833.58887      	834.1155       	833.403        	833.5937       	834.3643       	833.3608       	833.51276      	834.2652       	833.32434      	833.48035      	833.1697       	833.1681       	833.37134      	834.07336      	833.13196      	833.3376       	833.2218       	833.19135      	834.55426      	834.5837       	834.43616      	834.7154       	834.65765      	834.5806       	834.6188       	834.6374       	834.54724      	834.5072       	834.544        	834.6207       	834.53253      	834.46906      	834.39075      	834.48505      	834.40375      	834.37854      	834.4794       	834.26294      	834.301        	834.3942       	834.2805       	834.43665      	834.4965       	834.32153      	834.487        	834.5293       	834.5024       	834.51746      	834.5992       	834.59546      	834.5781       	834.6752       	834.5533       	834.649        	834.7549       	834.66046      	834.6954       	834.69305      	834.73627      	834.85364      	834.72235      	834.63635      	834.7422       	834.6012       	834.61035      	834.68384      	834.8531       	834.72845      	834.69446      	834.7877       	834.72125      	834.73645      	834.8331       	834.8453       	834.77435      	
835.61884      	833.7803       	833.8347       	833.88477      	833.8691       	833.79565      	833.72595      	833.87115      	833.74097      	833.8113       	833.76965      	833.66736      	833.69684      	833.72125      	833.82007      	833.81696      	834.63354      	833.6013       	833.7097       	833.7806       	834.19         	833.4469       	833.6325       	833.78         	834.1094       	833.5077       	833.7147       	833.8678       	833.6367       	833.6683       	833.9133       	833.50305      	833.55853      	833.7252       	833.3925       	833.3824       	833.60925      	834.22906      	833.2934       	833.4108       	834.3436       	833.3362       	833.9054       	833.28394      	833.6845       	833.3314       	834.3652       	834.64606      	834.76166      	834.56         	834.636        	834.9027       	834.61285      	834.7924       	834.6435       	834.407        	834.4457       	834.7724       	834.5941       	834.4923       	834.72125      	834.5108       	834.4438       	834.41705      	834.4597       	834.57983      	834.58374      	834.5397       	834.6565       	834.65625      	834.67786      	834.8141       	834.612        	834.5446       	834.83624      	834.8829       	834.7374       	834.81116      	834.90533      	834.90375      	834.8206       	834.9252       	835.0242       	834.86816      	834.98114      	834.84894      	834.92865      	834.77234      	834.8948       	834.9161       	834.9527       	834.92926      	834.9944       	835.00037      	835.03357      	834.9167       	834.8935       	835.0637       	834.9789       	834.88214      	
834.0021       	834.5628       	833.8145       	833.82385      	833.9376       	833.995        	833.9514       	833.85187      	834.0201       	833.76825      	833.828        	833.9259       	833.8698       	833.7299       	833.8047       	833.88196      	833.9061       	834.0108       	833.62537      	833.7963       	833.91766      	834.2147       	833.51306      	833.68463      	833.86         	834.4955       	833.46375      	833.59534      	833.8093       	834.2037       	833.5296       	833.7606       	834.6099       	833.4028       	833.5558       	834.4014       	833.3457       	833.42676      	833.59625      	833.4118       	833.38574      	833.9827       	833.3977       	833.45825      	835.0866       	834.774        	834.88855      	834.5447       	834.91266      	834.8656       	834.69         	834.82196      	834.83844      	834.8279       	834.8971       	834.8435       	834.6595       	834.6602       	834.67413      	834.4854       	834.70776      	834.6735       	834.64856      	834.5731       	834.56335      	834.69727      	834.6467       	834.5383       	834.7352       	834.6928       	834.78845      	834.731        	834.8368       	834.8945       	834.857        	834.91833      	834.93         	834.8349       	834.98724      	834.9843       	834.89813      	834.9823       	835.0526       	834.9444       	834.9737       	835.0148       	834.9625       	834.906        	834.9804       	834.9327       	835.04144      	834.92346      	835.0726       	834.9935       	835.11414      	835.0435       	835.0349       	835.082        	835.199        	835.21515      	
834.0785       	834.49976      	833.7584       	833.86206      	833.96387      	834.0225       	834.0146       	834.61365      	833.80206      	833.87885      	833.9571       	833.9281       	833.9808       	833.80176      	833.88513      	833.97595      	834.6735       	833.64996      	833.79193      	833.9781       	834.37054      	833.5247       	833.68567      	833.8457       	834.2942       	833.5089       	833.6659       	833.829        	833.6798       	833.5107       	833.69666      	834.1271       	833.41223      	833.5189       	833.713        	833.5448       	833.43427      	833.5401       	833.41595      	833.398        	833.5517       	833.4281       	833.3497       	833.4291       	833.4225       	833.3767       	834.72516      	833.42737      	833.7781       	833.7493       	834.75305      	834.67426      	834.7468       	834.7048       	834.835        	834.77106      	834.4968       	834.72516      	834.5427       	834.6754       	834.4071       	834.4936       	834.66376      	834.6505       	834.45825      	834.7983       	834.60767      	834.74133      	834.697        	834.777        	834.8041       	834.7845       	834.67474      	834.959        	834.89716      	834.9886       	834.91785      	834.9987       	834.96204      	834.94543      	834.8608       	835.0215       	835.0333       	834.9085       	834.7813       	834.9255       	834.8525       	835.0042       	835.0663       	835.06146      	835.0204       	835.04065      	835.0074       	834.93524      	835.13904      	835.031        	835.3093       	835.1239       	834.94855      	835.2587       	
833.7504       	833.7727       	833.8789       	833.9547       	834.0228       	833.76044      	833.78284      	833.8948       	833.9088       	834.59955      	833.6995       	833.79675      	833.88464      	833.906        	834.45795      	833.6274       	833.7846       	833.88574      	834.3291       	833.5255       	833.65375      	833.8015       	834.54004      	833.3922       	833.5231       	833.6903       	834.40924      	833.3609       	833.4912       	833.6625       	833.6836       	833.34094      	833.46375      	833.6582       	833.3448       	833.3403       	833.48596      	833.9877       	833.3292       	833.431        	834.50195      	833.3632       	833.3235       	834.0458       	833.35864      	833.3534       	834.12134      	833.41125      	833.9332       	833.4511       	833.8749       	833.49084      	834.7604       	834.7022       	834.8659       	834.5693       	834.8555       	834.65826      	834.64526      	834.538        	834.6992       	834.7797       	834.32477      	834.8315       	834.64514      	834.7428       	834.3894       	834.93304      	834.70996      	834.9724       	834.77704      	834.75024      	834.97626      	834.80396      	834.67377      	835.02496      	834.9824       	834.9332       	834.82996      	834.43256      	834.60114      	834.8643       	834.9974       	835.05566      	834.78         	834.81635      	834.86615      	834.8024       	834.9857       	835.01715      	835.05145      	835.02826      	834.9958       	835.0868       	835.01636      	835.20905      	835.11035      	835.16364      	835.3313       	835.2083       	
833.8571       	833.9838       	834.00006      	834.3571       	833.69336      	833.81195      	833.90857      	833.95105      	833.9483       	833.6914       	833.8397       	833.93976      	834.33264      	833.5771       	833.7171       	833.82776      	833.87756      	833.4259       	833.42175      	833.5813       	833.77216      	833.64215      	833.3184       	833.4604       	833.64026      	833.5205       	833.23303      	833.3647       	833.5384       	833.31586      	833.2412       	833.3409       	834.04156      	833.2291       	833.28033      	833.3412       	834.43134      	833.218        	833.28796      	833.9558       	833.22687      	833.21216      	834.3115       	833.274        	833.2914       	833.7784       	833.321        	833.9569       	833.4044       	833.4442       	833.54987      	833.7842       	834.60815      	834.5463       	834.42065      	834.54895      	834.56354      	834.65436      	834.36224      	834.3457       	834.4043       	834.33203      	834.3563       	834.5499       	834.6638       	834.3993       	834.6065       	834.7309       	834.5025       	834.55396      	834.5677       	834.57916      	834.7859       	834.6881       	834.69214      	834.85706      	834.8269       	834.7955       	834.5653       	834.6913       	834.6438       	834.6105       	834.8131       	834.6296       	834.6716       	834.73566      	834.8093       	834.8636       	834.58276      	834.8541       	834.98926      	834.84125      	834.84015      	834.86365      	834.9905       	834.92554      	835.1914       	835.1217       	835.2076       	834.84125      	
833.6606       	833.3771       	833.44946      	833.588        	833.6726       	834.47144      	833.32465      	833.48645      	833.64966      	833.6807       	833.65894      	833.324        	833.46814      	833.59344      	834.377        	833.19214      	833.26965      	833.4297       	833.588        	833.1849       	833.1338       	833.3054       	833.4639       	833.1879       	833.0211       	833.15533      	833.3355       	833.1566       	833.0063       	833.0951       	833.27795      	833.1491       	833.04755      	833.1298       	833.5189       	833.0798       	833.1036       	833.50726      	833.09576      	833.04456      	834.1514       	833.1049       	833.0255       	834.42615      	833.0985       	833.0692       	833.4294       	833.26654      	834.21124      	834.52545      	833.39703      	834.3825       	834.44275      	834.0935       	834.53625      	834.2442       	834.16516      	834.25867      	834.23956      	834.456        	834.2477       	834.2399       	834.36536      	834.49506      	834.2226       	834.2133       	834.3119       	834.5055       	834.4859       	834.5166       	834.49225      	834.5217       	834.53326      	834.4723       	834.5505       	834.60126      	834.5254       	834.7016       	834.644        	834.5072       	834.4034       	834.38586      	834.6137       	834.6659       	834.60785      	834.47046      	834.46027      	834.62195      	834.65753      	834.52637      	834.67816      	834.68665      	834.64905      	834.7147       	834.5892       	834.87164      	834.8083       	834.64386      	834.6944       	834.8604       	
833.3663       	833.5519       	833.609        	834.37415      	833.1514       	833.23145      	833.3532       	833.4837       	833.9306       	833.05524      	833.17865      	833.3097       	833.46875      	833.9284       	833.04895      	833.15875      	833.32904      	833.4899       	833.00287      	833.02765      	833.1449       	833.35535      	833.3593       	833.0201       	833.09827      	833.2275       	834.2504       	832.9784       	833.0319       	833.1135       	833.9684       	832.9567       	832.9545       	833.0546       	833.06696      	832.97076      	832.96625      	834.2387       	832.9245       	832.8982       	833.699        	833.0292       	832.9265       	833.58527      	833.09155      	833.01276      	833.4267       	833.0118       	833.3574       	833.0417       	834.203        	834.24835      	834.43396      	834.2517       	834.38806      	834.2553       	834.59894      	834.25385      	834.13776      	834.3712       	834.3451       	834.1036       	834.5348       	834.20435      	834.2232       	834.0742       	834.0873       	834.2268       	834.2783       	834.224        	834.44165      	834.29895      	834.31836      	834.25586      	834.5446       	834.4711       	834.57043      	834.5811       	834.4362       	834.34314      	834.31305      	834.1995       	834.39856      	834.44556      	834.1067       	833.97534      	834.3134       	834.6087       	834.43036      	834.5118       	834.3434       	834.3216       	834.37445      	834.5437       	834.53156      	834.6594       	834.72327      	834.5399       	834.6159       	834.62695      	
833.5218       	832.9276       	832.83685      	832.95544      	833.079        	833.2188       	833.3264       	833.0355       	832.9066       	833.0199       	833.1605       	833.7817       	832.7821       	832.8596       	833.05896      	833.2273       	833.05414      	832.7686       	832.89166      	833.03094      	833.7828       	832.7347       	832.7758       	832.898        	833.4083       	832.7356       	832.7472       	832.8389       	833.2353       	832.8056       	832.80676      	832.791        	833.7797       	832.7491       	832.7438       	833.27454      	832.80286      	832.7566       	833.2571       	832.8429       	832.6981       	833.1995       	832.88086      	832.7784       	833.26984      	832.91766      	832.8457       	834.14594      	833.98016      	833.96106      	834.02997      	834.0431       	834.00977      	834.1664       	834.17035      	834.3336       	833.87665      	833.9202       	833.9602       	834.21497      	834.10474      	834.0364       	834.0183       	833.9962       	834.19073      	834.23816      	834.2323       	834.057        	834.1941       	834.25714      	834.267        	834.23395      	834.1661       	834.3429       	834.1725       	834.1008       	834.3353       	834.03253      	834.2409       	834.09186      	834.1397       	834.30444      	834.329        	834.1853       	834.14813      	834.24835      	834.172        	834.09485      	834.1404       	834.18066      	834.19226      	834.1329       	834.2012       	834.28876      	834.3656       	834.418        	834.3932       	834.4044       	834.23254      	833.02185      	
833.3726       	834.1589       	832.81573      	832.7489       	832.87115      	833.014        	833.1728       	833.6274       	832.7851       	832.8406       	832.9513       	833.0742       	833.8406       	832.75226      	832.8489       	832.9893       	833.17816      	832.7711       	832.81195      	832.8786       	832.9957       	832.9979       	832.7276       	832.7904       	832.8669       	834.456        	832.82074      	832.8023       	832.8111       	833.47943      	832.82465      	832.7844       	832.7782       	833.7207       	832.79065      	832.7825       	833.3355       	832.90625      	832.7656       	833.0012       	833.0531       	832.84406      	832.7733       	833.17255      	832.92084      	833.3243       	833.08325      	832.93884      	833.33594      	832.95844      	833.42535      	833.0392       	833.9075       	833.87103      	834.06775      	834.3998       	833.91205      	834.22064      	834.0566       	834.139        	833.8965       	833.907        	834.0918       	833.9525       	833.12244      	833.31177      	833.60455      	834.32214      	834.3273       	834.2847       	834.1585       	834.3424       	834.34216      	833.9527       	834.1211       	834.43695      	834.2657       	834.3331       	834.3858       	834.26953      	834.3661       	834.3021       	834.3147       	834.2851       	834.222        	834.264        	834.1693       	834.2367       	834.2938       	834.3132       	834.25946      	834.3011       	834.25195      	834.2672       	834.527        	834.476        	834.4964       	834.3958       	834.1988       	833.16864      	
833.0387       	833.2314       	833.31384      	833.78894      	832.72144      	832.8038       	832.9472       	833.1456       	833.79         	832.73724      	832.8175       	832.96027      	833.57         	832.74023      	832.76135      	832.87933      	833.0175       	833.86804      	832.703        	832.7389       	832.8819       	833.54364      	832.7595       	832.78864      	832.82074      	833.2337       	832.7357       	832.7343       	832.7884       	833.16125      	832.8093       	832.7745       	832.7718       	833.10046      	832.8567       	832.7883       	833.1479       	833.0312       	832.8842       	832.7606       	833.7965       	833.08435      	832.91766      	833.52936      	833.1406       	833.01215      	833.4649       	833.0745       	833.4379       	833.2634       	833.0273       	833.3605       	833.3017       	834.5551       	834.25977      	834.36536      	834.1881       	834.4054       	834.3266       	834.3134       	834.4452       	833.91547      	834.11847      	834.1703       	833.8351       	834.21625      	834.2201       	834.1617       	834.23785      	834.3873       	834.17706      	834.1425       	834.5654       	834.27826      	833.8935       	834.294        	834.2677       	834.07855      	833.95856      	834.31085      	834.15137      	834.2164       	834.36383      	834.02527      	834.1982       	834.15344      	834.3057       	834.18256      	834.4251       	834.44073      	834.1106       	834.33984      	834.2727       	834.1881       	834.6593       	834.69147      	834.61395      	833.4608       	833.17804      	833.6775       	
833.2861       	834.00006      	832.80597      	832.8026       	832.87915      	833.02576      	833.2179       	833.9364       	832.7992       	832.89557      	833.0536       	833.4903       	832.7981       	832.8688       	832.9784       	833.2069       	832.82007      	832.8342       	832.8904       	833.0277       	833.1988       	832.8622       	832.87396      	832.92065      	833.35803      	832.9056       	832.8563       	832.89935      	833.298        	832.9954       	832.8994       	833.0907       	833.1324       	832.99164      	832.91437      	833.61926      	833.20026      	833.04333      	832.9314       	834.1019       	833.1944       	833.0553       	833.6366       	833.3115       	833.1826       	833.05524      	833.9304       	833.22864      	833.6485       	833.28876      	833.1644       	833.9319       	833.2295       	835.59174      	833.52826      	834.5199       	834.2965       	834.4704       	834.58136      	834.37024      	834.372        	834.68616      	834.5559       	834.4672       	834.2933       	834.68427      	834.3669       	834.43225      	834.41345      	834.4083       	834.39734      	834.10645      	834.27484      	834.4694       	834.24194      	834.4776       	834.3609       	834.3517       	834.53064      	834.44336      	834.3832       	834.22565      	834.16626      	834.3214       	834.31775      	834.32776      	834.2461       	834.5214       	834.3306       	834.4552       	834.3757       	834.2717       	834.4718       	834.4177       	834.5735       	834.6518       	834.84796      	833.2564       	833.74097      	833.2213       	
834.22003      	832.94604      	832.9947       	833.0583       	833.15515      	833.30347      	834.06256      	832.9679       	833.0889       	833.1957       	833.77875      	833.06433      	833.038        	833.1277       	833.2574       	833.2766       	833.0709       	833.11255      	833.2052       	833.3842       	833.08014      	833.0844       	833.1833       	833.2988       	833.10095      	833.1018       	833.1949       	833.2616       	833.1564       	833.09705      	833.72363      	833.3929       	833.25555      	833.16895      	833.2177       	833.50525      	833.3622       	833.2183       	833.4132       	833.47784      	833.36725      	833.22876      	833.43835      	833.4489       	833.3294       	833.8792       	833.4545       	833.38293      	833.9522       	833.4844       	833.5107       	833.6698       	833.4873       	834.2405       	834.2881       	833.61664      	834.1328       	834.54535      	834.6819       	834.666        	834.6696       	834.3584       	834.57715      	834.47156      	834.65796      	834.6228       	834.57855      	834.6316       	834.49896      	834.7797       	834.2733       	834.4994       	834.4613       	834.67456      	834.6345       	834.67145      	834.39874      	834.5084       	834.18976      	834.3302       	834.4301       	834.2774       	834.1894       	834.4399       	834.4686       	834.46027      	834.36334      	834.51587      	834.41565      	834.3099       	834.4789       	834.3318       	834.6437       	834.90894      	834.64856      	834.93726      	835.32935      	833.37006      	833.9799       	833.3624       	
833.0163       	832.9485       	833.03406      	833.16626      	833.33295      	833.5001       	832.9492       	833.04987      	833.2103       	833.4975       	832.969        	833.01843      	833.19714      	834.356        	833.0276       	833.0364       	833.1466       	834.00476      	833.04175      	833.0661       	833.1097       	833.298        	833.0675       	833.0475       	833.62933      	833.2102       	833.1472       	833.1021       	833.4188       	833.2948       	833.1956       	833.1609       	833.6208       	833.40497      	833.2991       	833.22473      	833.89325      	833.4845       	833.39484      	833.2438       	834.10974      	833.5399       	833.3926       	833.8803       	833.5772       	833.4492       	833.865        	833.5779       	833.4106       	834.1117       	833.57825      	833.9668       	833.673        	833.519        	834.1868       	833.5504       	834.6982       	834.68695      	834.4805       	834.83386      	834.4082       	834.5894       	834.59283      	834.39496      	834.67163      	834.6508       	834.8312       	834.50854      	834.7425       	834.4863       	834.2591       	834.52466      	834.6582       	834.49255      	834.7372       	834.50964      	834.5533       	834.4809       	834.4348       	834.6676       	834.3356       	834.51276      	834.385        	834.31195      	834.33563      	834.4315       	834.4828       	834.5274       	834.59595      	834.35846      	834.53864      	834.54816      	834.73724      	834.82574      	834.5439       	834.9108       	833.89166      	833.81506      	833.4708       	834.21484      	
833.2335       	833.3775       	833.4838       	833.9476       	833.13257      	833.1715       	833.29846      	833.77966      	833.17426      	833.23706      	833.7701       	833.17487      	833.186        	833.3086       	833.3043       	833.21704      	833.26605      	834.07434      	833.26306      	833.31067      	833.8074       	833.30334      	833.2402       	833.2272       	833.6781       	833.358        	833.2542       	833.2406       	833.75         	833.472        	833.3771       	833.2324       	833.93286      	833.55115      	833.4354       	833.292        	834.14594      	833.63855      	833.5647       	833.4362       	833.80084      	833.6698       	833.5901       	833.9335       	833.7112       	833.663        	833.55475      	833.94714      	833.6653       	834.02203      	833.8014       	833.69446      	834.0727       	833.74316      	834.06226      	833.75574      	833.70325      	834.88965      	834.78845      	834.7411       	834.9019       	834.7525       	834.6161       	834.7234       	834.7597       	834.7222       	834.61395      	834.90424      	834.73175      	834.9728       	834.8263       	834.81384      	834.98566      	834.83496      	834.62756      	834.7401       	834.711        	834.6322       	834.5936       	834.6749       	834.6124       	834.6139       	834.43256      	834.5141       	834.4466       	834.57153      	834.47687      	834.73254      	834.463        	834.53217      	834.75         	834.5808       	834.60004      	834.9402       	834.9033       	834.9879       	834.9518       	834.9313       	834.5347       	834.8341       	
833.3294       	833.4496       	833.55927      	834.1388       	833.26855      	833.2976       	833.4227       	833.836        	833.3529       	833.4202       	833.9808       	833.3482       	833.3839       	833.7282       	833.5027       	833.38574      	833.44104      	834.0219       	833.4474       	833.4381       	834.13727      	833.518        	833.4337       	833.43225      	833.80817      	833.4873       	833.45636      	833.9872       	833.68884      	833.61237      	833.5001       	834.8987       	833.72034      	833.66077      	833.5501       	834.01764      	833.81934      	833.7448       	833.67804      	833.89026      	833.82153      	833.75616      	834.39124      	833.86334      	833.8622       	834.00867      	833.9438       	833.86707      	833.83203      	834.12506      	833.8848       	834.4942       	833.93646      	833.9062       	834.3196       	833.94464      	834.2448       	834.9143       	833.8994       	834.689        	835.05237      	833.8834       	834.6963       	835.18616      	835.0508       	834.8122       	834.8687       	835.02594      	834.9079       	835.16077      	834.9908       	834.93225      	834.9527       	834.8233       	834.77625      	834.89996      	834.7998       	834.6507       	834.7644       	834.72656      	833.52155      	834.4134       	834.8792       	834.6641       	834.48395      	834.65234      	834.64484      	834.68805      	834.94464      	834.84283      	834.73627      	834.79535      	834.85736      	835.0973       	835.00903      	835.1355       	835.20746      	835.15027      	835.1827       	834.89777      	
833.4722       	833.98834      	833.2618       	833.3331       	833.3998       	834.1081       	833.2382       	833.3217       	833.88605      	833.2172       	833.3233       	833.4274       	833.27924      	833.61554      	833.3583       	833.3106       	833.69916      	833.3827       	833.3396       	834.0321       	833.42456      	833.3861       	833.3909       	833.5681       	833.4078       	833.379        	834.3391       	833.52936      	833.5185       	833.9593       	833.6892       	833.6249       	833.5725       	834.18134      	833.7681       	833.72687      	833.6771       	834.2793       	833.72955      	833.74713      	833.71515      	833.92816      	833.7161       	833.7646       	833.7032       	833.89026      	833.8181       	833.8065       	834.3083       	833.78906      	833.8141       	833.9749       	833.81836      	834.3158       	833.78375      	833.77246      	834.34753      	833.76843      	833.9765       	834.9662       	834.8173       	833.7499       	835.0481       	834.9103       	834.67         	834.5693       	834.9365       	834.80597      	834.9606       	834.83234      	834.7376       	834.9293       	834.72546      	834.9262       	834.4913       	834.0954       	833.5128       	834.0644       	833.47797      	833.7862       	833.413        	833.5791       	833.41406      	833.3958       	833.95306      	833.35406      	833.92944      	833.4132       	834.79675      	834.56946      	834.60376      	834.4102       	834.7636       	834.8952       	834.99866      	834.9182       	834.7826       	835.0382       	833.5286       	834.0878       	
835.7953       	833.22455      	833.3129       	833.4335       	833.96906      	833.25574      	833.33374      	833.578        	833.2266       	833.6856       	833.2748       	833.60065      	833.26196      	833.44965      	833.36566      	833.27905      	833.96576      	833.34265      	833.3147       	833.8552       	833.3642       	833.3744       	833.84766      	833.45386      	833.4511       	833.45856      	833.63336      	833.51825      	833.50574      	834.7372       	833.6376       	833.6127       	833.489        	833.9387       	833.69946      	833.67566      	833.64185      	833.8676       	833.69934      	833.69836      	834.15247      	833.64105      	833.7234       	833.7639       	834.4778       	833.6787       	833.73865      	833.7447       	833.84186      	833.8114       	833.8139       	834.1021       	833.7991       	833.8574       	833.7522       	833.7234       	834.1394       	833.736        	833.7572       	834.1635       	833.6898       	833.95337      	833.8292       	833.6823       	834.68805      	833.6479       	834.5015       	834.944        	834.8105       	834.5625       	834.31616      	834.77026      	834.62036      	834.82465      	836.0598       	833.53253      	834.0844       	833.51215      	833.5231       	833.51556      	833.46594      	833.8176       	833.3786       	833.42163      	833.6603       	833.3526       	833.98334      	833.369        	833.4195       	833.6267       	833.4102       	834.0768       	833.4555       	833.5587       	834.6452       	834.2066       	833.6067       	834.0954       	833.5565       	833.9097       	
833.6571       	833.46674      	833.9958       	833.5729       	833.36487      	833.8484       	833.3433       	833.37787      	834.8904       	833.4059       	833.944        	833.4316       	833.78033      	833.40845      	833.93555      	833.4474       	833.9332       	833.48376      	833.4766       	834.0906       	833.5333       	833.51495      	834.1942       	833.66235      	833.5989       	834.26733      	833.7584       	833.7909       	833.70886      	834.8749       	833.8098       	833.8355       	833.76086      	834.8968       	833.8157       	833.8256       	833.85846      	835.5052       	833.86414      	833.9154       	833.9363       	835.40356      	833.7379       	833.8723       	833.9542       	834.91254      	833.9075       	833.98785      	834.775        	833.86163      	833.9558       	834.03906      	834.07056      	833.96906      	834.0956       	833.9576       	833.9579       	834.51917      	833.8803       	834.2582       	833.90393      	833.9224       	834.7669       	833.9181       	834.51263      	833.80286      	833.88074      	834.1737       	833.9073       	834.8564       	834.81067      	835.0211       	834.10516      	833.7881       	833.8015       	833.8777       	833.7757       	834.05316      	833.6822       	833.68         	834.3405       	833.6573       	833.64185      	834.2548       	833.5853       	833.5915       	833.7769       	833.53656      	833.6646       	833.7027       	833.55927      	833.6637       	833.7637       	833.6695       	833.7855       	833.78613      	833.77905      	834.40765      	833.738        	836.77405      	
834.9016       	834.62085      	834.8486       	834.99744      	834.87756      	834.7343       	833.5945       	833.766        	833.63446      	834.0433       	833.6114       	834.1598       	833.6513       	834.57886      	834.65436      	833.71515      	834.1863       	833.7217       	833.7679       	833.87897      	833.76917      	834.1156       	833.83386      	833.8202       	835.0192       	833.90564      	833.8886       	834.6392       	834.03625      	834.0459       	834.04395      	834.3507       	834.0469       	834.0997       	834.0972       	834.11005      	833.9811       	833.9786       	834.12146      	834.14636      	834.0753       	833.9268       	834.114        	834.18945      	834.253        	834.0471       	834.1871       	835.00366      	833.97516      	834.102        	834.251        	834.45636      	834.14557      	834.29         	834.42114      	834.1634       	834.2477       	834.19977      	834.1358       	834.7741       	834.0448       	834.14         	834.7666       	834.0964       	834.10895      	834.3235       	834.0847       	834.65753      	834.06433      	834.1175       	834.5123       	834.0357       	834.4342       	834.00867      	834.0729       	834.4098       	833.9639       	833.9795       	834.72437      	833.9134       	833.88464      	833.8971       	834.3077       	833.85645      	833.843        	834.96747      	833.87897      	833.8627       	834.60706      	833.83875      	833.8997       	834.39545      	833.8865       	833.92316      	834.40985      	834.05066      	834.0969       	834.6622       	834.07605      	834.57153      	
834.9879       	835.1363       	835.22437      	835.3213       	835.0231       	835.06775      	834.04877      	833.90326      	835.44476      	835.2037       	835.0697       	835.14355      	834.99457      	835.07837      	835.339        	835.2888       	833.9606       	834.56335      	834.0563       	834.40125      	834.08563      	834.08795      	834.34955      	834.1637       	834.129        	834.8915       	834.2524       	834.256        	834.2553       	835.002        	834.2816       	834.34973      	834.3724       	834.9594       	834.27893      	834.36163      	834.4059       	834.3472       	834.2639       	834.3937       	834.5071       	834.1677       	834.1237       	834.3538       	834.49536      	834.45074      	834.27075      	834.45404      	835.10657      	834.15424      	834.32947      	834.49713      	835.311        	834.25836      	834.427        	834.9141       	834.3757       	834.4899       	834.898        	834.3865       	835.14594      	834.2852       	834.3619       	834.99475      	834.2337       	834.34796      	838.524        	834.2376       	834.3282       	834.9825       	834.25934      	834.3343       	834.8339       	834.2975       	834.30444      	834.32214      	834.3727       	834.2604       	834.2637       	834.61884      	834.19965      	834.20465      	834.23804      	834.29266      	834.1542       	834.13324      	834.53894      	834.1071       	834.1259       	834.89453      	834.12103      	834.18555      	834.23346      	834.4034       	834.17         	834.2845       	834.427        	834.1995       	834.28064      	834.3815       	
835.2487       	835.3214       	835.2653       	835.25226      	835.513        	835.5183       	835.4195       	835.3786       	835.642        	835.47784      	835.51086      	835.5399       	835.4987       	835.7362       	835.6693       	835.5417       	835.6097       	835.7234       	834.45154      	834.8408       	834.4683       	834.4195       	834.7656       	834.4568       	834.47266      	834.8649       	834.514        	834.5381       	834.55457      	835.0626       	834.5392       	834.58264      	834.63403      	834.4534       	834.46765      	834.5658       	834.65485      	834.3418       	834.36523      	834.5403       	834.6897       	834.4615       	834.268        	834.4975       	834.6576       	834.63245      	834.32654      	834.5518       	834.7533       	834.54126      	834.4456       	834.65125      	835.05945      	834.4352       	834.6485       	835.1505       	834.5138       	834.6781       	835.5833       	834.5102       	835.0501       	834.446        	834.6072       	835.80634      	834.41986      	834.55817      	835.08136      	834.4098       	834.50336      	835.2431       	834.41614      	834.44165      	834.5165       	835.1374       	834.41754      	834.4473       	834.4983       	834.8967       	834.40173      	834.43353      	834.42554      	834.89075      	834.38605      	834.35657      	835.1059       	834.41534      	834.3295       	834.35535      	834.9199       	834.3525       	834.34955      	834.41235      	834.8991       	834.3587       	834.4102       	834.497        	834.5432       	834.43524      	834.5958       	834.75854      	
835.71674      	835.85         	835.8313       	835.75433      	835.7077       	835.6669       	835.64386      	835.7089       	835.7408       	835.57544      	835.80304      	835.7724       	835.8121       	835.96594      	836.1667       	835.4147       	834.779        	835.1966       	834.8365       	835.15344      	835.00366      	834.942        	834.8697       	835.64636      	834.9464       	834.9648       	835.1815       	834.9857       	834.9845       	835.0186       	835.11145      	834.68396      	834.77313      	834.9968       	835.10815      	835.7135       	834.6227       	834.7732       	834.93854      	835.0444       	837.2771       	834.62396      	834.77185      	834.95276      	835.0982       	834.6807       	834.70795      	834.9919       	835.16766      	834.8584       	834.8295       	835.02673      	835.1624       	834.82965      	834.9094       	835.0514       	835.6761       	834.83746      	835.01324      	835.74585      	834.8101       	834.8945       	834.97144      	835.5294       	834.706        	834.852        	834.9526       	835.15796      	834.8095       	834.90924      	834.9867       	835.572        	834.7694       	834.89685      	834.9401       	835.33453      	834.95514      	834.94543      	834.9632       	834.9908       	835.5498       	834.82874      	834.786        	834.7687       	834.7476       	834.9325       	834.83167      	834.808        	834.791        	835.77026      	834.76697      	834.80896      	834.86255      	835.234        	834.7347       	834.77313      	834.8975       	835.2715       	834.8128       	834.8691       	
835.9672       	836.1576       	836.053        	836.1843       	836.15717      	836.13837      	836.1415       	836.19934      	836.30505      	836.16656      	836.20245      	836.0595       	836.1649       	836.5156       	836.1056       	836.1315       	835.03546      	835.34265      	835.0873       	835.36816      	835.29913      	835.2285       	835.18176      	835.6617       	835.1972       	835.2835       	835.8828       	835.0702       	835.1695       	835.22         	836.0196       	834.72876      	834.73444      	834.90393      	835.02057      	835.21234      	835.543        	834.7027       	834.78186      	834.94495      	835.17645      	835.38586      	834.6409       	834.7488       	834.9206       	835.2355       	835.8346       	834.66675      	834.82855      	835.0968       	835.69794      	834.7276       	834.9057       	835.1353       	835.55054      	834.84235      	834.9809       	835.1684       	835.24426      	834.8676       	835.0024       	835.94165      	834.8378       	834.9037       	835.0421       	835.718        	834.8602       	834.95465      	835.0716       	835.54126      	834.94714      	834.9997       	835.1188       	835.17566      	835.4687       	835.03424      	835.08356      	835.1374       	835.54114      	835.048        	835.02826      	835.03815      	835.05414      	835.3011       	835.0245       	835.00104      	834.99225      	835.18335      	834.9835       	834.97595      	834.9973       	835.02826      	835.00574      	835.05316      	835.1146       	835.2071       	834.9971       	835.05347      	835.8556       	835.0131       	
835.97034      	836.0646       	836.32544      	836.25226      	836.05475      	835.88837      	836.05804      	836.04224      	836.1357       	836.2234       	836.09375      	836.2884       	836.09534      	836.29553      	835.8969       	835.62854      	835.27216      	835.10156      	835.58         	835.1657       	835.2008       	835.23267      	835.1526       	835.11456      	835.1212       	835.5053       	835.02057      	835.07477      	835.15424      	835.49426      	834.66565      	834.7944       	834.958        	835.0616       	835.873        	834.6373       	834.6887       	834.7755       	834.99506      	835.0145       	834.51624      	834.55695      	834.7766       	835.06866      	834.6647       	834.49347      	834.66754      	834.86096      	835.77936      	834.53265      	834.698        	834.9346       	835.74274      	834.6187       	834.7458       	834.9945       	835.85065      	834.7185       	834.9102       	835.0741       	835.2204       	834.7683       	834.88794      	835.4079       	834.7686       	834.84283      	834.9563       	835.64606      	834.7688       	834.8409       	834.9361       	835.0187       	834.9259       	834.90814      	835.0127       	835.087        	835.6798       	834.97235      	834.9906       	834.95105      	834.99567      	835.129        	834.94336      	834.9594       	834.93207      	835.4619       	834.9774       	834.85535      	834.87         	835.32935      	834.9061       	834.87476      	834.91833      	835.5657       	834.91205      	834.8998       	834.97034      	835.63226      	834.92084      	834.9608       	
836.0476       	836.1202       	836.2399       	836.19507      	836.17413      	836.18445      	836.1116       	836.23376      	836.2473       	836.37305      	836.35126      	836.35297      	836.24963      	836.3565       	836.4713       	836.14685      	837.67456      	835.2353       	836.26556      	835.4685       	835.37634      	835.4014       	835.6811       	835.2588       	835.30054      	835.3559       	835.2651       	835.0671       	835.24866      	835.3715       	834.9154       	834.85443      	834.99713      	835.1185       	835.99976      	834.8294       	834.8852       	834.99426      	835.23047      	834.9079       	834.7474       	834.79395      	834.9718       	835.2155       	834.982        	834.747        	834.8942       	835.1083       	835.6712       	834.80383      	834.96246      	835.1579       	835.93585      	834.8708       	834.99567      	835.15656      	835.9591       	834.8899       	834.97546      	835.11         	835.99255      	834.89606      	834.9576       	835.125        	836.50183      	834.95105      	835.0264       	835.1176       	835.49896      	834.9851       	835.06805      	835.1166       	835.1973       	835.03705      	835.0755       	835.15485      	835.2323       	835.8594       	835.0933       	835.1465       	835.0772       	835.11206      	835.7499       	835.07135      	835.0882       	835.0514       	835.7066       	835.1599       	835.0582       	835.05896      	835.857        	835.11224      	835.0894       	835.1085       	835.28406      	835.129        	835.09485      	835.131        	835.5155       	835.1464       	
836.1078       	836.11664      	836.2543       	836.1699       	836.25854      	836.2771       	836.17163      	836.1419       	836.3923       	836.2924       	836.3603       	836.3897       	836.33325      	836.3379       	836.5749       	836.3646       	836.41693      	836.18933      	836.6042       	835.2094       	835.2461       	835.88416      	835.13416      	835.15875      	835.25006      	835.0637       	835.01013      	835.1102       	835.878        	834.78314      	834.8848       	834.99774      	840.6439       	834.782        	834.8194       	834.9144       	835.4731       	834.6609       	834.6836       	834.8317       	835.20386      	834.62683      	834.5768       	834.67426      	834.89386      	835.7399       	834.5702       	834.64056      	834.8766       	835.4351       	834.66504      	834.8312       	835.04114      	835.39685      	834.7382       	834.88513      	835.7764       	834.69104      	834.77856      	834.90845      	835.6116       	834.7614       	834.8173       	834.9237       	835.8952       	834.82916      	834.8486       	834.8776       	835.4518       	834.8343       	834.86975      	834.94696      	835.06824      	835.4003       	834.8961       	834.94244      	835.04297      	835.38434      	834.96716      	834.9378       	834.98303      	834.96606      	835.58466      	835.01355      	834.9234       	834.8637       	834.9016       	835.7513       	834.94934      	834.8955       	834.93396      	835.03516      	835.18225      	834.93256      	834.92554      	835.0124       	835.6762       	834.9016       	834.95447      	835.0498       	
836.23364      	836.29364      	836.4833       	836.47174      	836.4151       	836.3368       	836.3072       	836.45544      	836.42474      	836.50977      	836.4965       	836.65393      	836.582        	836.5909       	836.67224      	836.5091       	836.4633       	836.8358       	836.713        	836.67426      	836.3603       	835.3786       	835.42114      	836.2187       	835.1735       	835.287        	835.4343       	835.0436       	835.0922       	835.20776      	836.07587      	834.93677      	834.96814      	835.0859       	835.9452       	834.95056      	834.8782       	834.96875      	835.8556       	835.0222       	834.9057       	834.9097       	835.0525       	835.3873       	834.9322       	834.8681       	835.00287      	835.1813       	835.8858       	834.9538       	835.10547      	835.5776       	835.0641       	835.08704      	835.2324       	836.0839       	835.0704       	835.1451       	835.22906      	835.8764       	835.04663      	835.1194       	835.19116      	836.0155       	835.0746       	835.1254       	835.2579       	836.08496      	835.1625       	835.2242       	835.3145       	836.12164      	835.15234      	835.2732       	835.32446      	835.4183       	835.3284       	835.3444       	835.3433       	835.3525       	835.7319       	835.3037       	835.2385       	835.2711       	835.2651       	836.14636      	835.3027       	835.2692       	835.2382       	835.2475       	835.8816       	835.27966      	835.30084      	835.30457      	835.38446      	835.4154       	835.32324      	835.34644      	835.4656       	835.82043      	
836.58813      	836.72626      	836.9648       	836.8647       	836.8168       	836.7465       	836.71106      	836.79175      	837.03217      	837.0006       	836.8822       	836.9021       	837.0878       	836.1467       	836.4096       	836.90875      	835.7796       	836.30884      	836.2275       	837.2991       	837.3473       	836.43463      	835.7409       	835.79364      	836.6721       	835.38336      	835.4817       	835.59863      	836.1085       	835.3403       	835.3868       	835.4897       	835.4641       	835.2937       	835.2594       	835.89624      	835.2384       	835.151        	835.1974       	835.3715       	835.3913       	835.1522       	835.1863       	835.2871       	836.1181       	835.1641       	835.13043      	835.2165       	835.4661       	835.97766      	835.2186       	835.3349       	836.0111       	835.2799       	835.35284      	835.4825       	836.16174      	835.34973      	835.3687       	835.4763       	835.96765      	835.33         	835.3542       	835.46344      	836.40454      	835.3798       	835.4131       	835.44824      	835.88385      	835.3437       	835.4596       	835.5686       	836.12897      	835.4317       	835.4808       	835.57983      	836.20074      	835.46765      	835.51575      	835.55994      	835.5525       	836.18756      	835.48706      	835.4993       	835.4587       	835.43774      	835.7676       	835.49115      	835.489        	835.40717      	835.4566       	835.8415       	835.4686       	835.4447       	835.45856      	835.6161       	835.61914      	835.42566      	835.5297       	835.5894       	
836.32544      	836.4085       	836.48315      	836.55206      	836.4359       	836.6308       	836.41656      	836.67114      	836.462        	836.46783      	836.6147       	836.578        	836.61523      	836.45856      	835.53906      	835.8811       	835.421        	836.26074      	835.53815      	835.93024      	835.34534      	835.423        	836.0646       	835.0559       	835.1426       	835.28375      	835.75836      	834.844        	834.94525      	835.0986       	835.292        	834.9049       	834.8623       	835.27454      	834.9027       	834.8099       	834.8137       	835.4521       	834.9089       	834.75836      	834.709        	834.8089       	835.28876      	834.73627      	834.6445       	834.75806      	834.9518       	835.3316       	834.7289       	834.8226       	835.04974      	834.92456      	834.79755      	834.9353       	835.309        	834.82996      	834.8788       	835.0075       	835.0292       	834.8594       	834.91797      	834.95966      	835.04675      	834.8821       	834.9617       	835.0313       	835.0401       	834.9339       	834.9983       	835.9033       	834.9227       	834.9732       	835.05707      	835.0674       	835.0914       	834.9933       	835.04614      	835.0359       	835.8936       	835.013        	835.02747      	834.99274      	835.0111       	835.78644      	834.986        	834.9604       	834.95575      	834.92834      	834.97894      	835.13544      	834.926        	834.9086       	834.9815       	835.594        	834.98206      	834.99585      	835.02313      	835.07056      	835.38635      	834.9322       	
835.963        	835.98083      	836.1699       	836.20404      	836.06824      	836.36975      	836.1915       	836.38855      	836.07916      	836.24036      	836.14966      	836.3467       	836.4452       	836.20746      	837.3723       	835.47504      	835.1689       	835.6049       	835.0787       	835.4636       	835.001        	835.0831       	835.5339       	834.6259       	834.7294       	834.90625      	835.6392       	834.55896      	834.5704       	834.6716       	835.9694       	834.5939       	834.5784       	834.57367      	834.79944      	834.6133       	834.5332       	834.551        	835.2141       	834.6207       	834.51526      	834.47046      	834.5066       	834.7868       	834.4548       	834.4606       	834.5613       	835.3173       	834.49634      	834.5411       	834.67224      	835.1814       	834.5782       	834.63196      	834.7666       	835.0204       	834.6727       	834.73914      	835.16644      	834.77313      	834.68616      	834.72595      	835.1747       	834.76794      	834.7116       	834.7623       	835.3308       	834.7945       	834.81085      	834.85785      	835.46         	834.7688       	834.83636      	834.8699       	835.60364      	834.7836       	834.8337       	834.92505      	834.91254      	835.90717      	834.8365       	834.8817       	834.8775       	834.81744      	835.2037       	834.9114       	834.85767      	834.8021       	834.83453      	835.37726      	834.86646      	834.8225       	834.8979       	834.94635      	835.65894      	834.9181       	834.93774      	834.9163       	835.0411       	835.8512       	
836.08093      	836.18365      	836.268        	836.3224       	836.3715       	836.45416      	836.40857      	836.4052       	836.40894      	836.3635       	836.36273      	836.43835      	836.5251       	836.3816       	836.60547      	835.58325      	835.44824      	835.2449       	835.41754      	835.21277      	835.7113       	835.00256      	835.07367      	835.45325      	834.70447      	834.75494      	834.85425      	835.5234       	834.7053       	834.6896       	834.7314       	836.15564      	834.74475      	834.6603       	834.6017       	835.4223       	834.8126       	834.68256      	834.5652       	834.59155      	834.9203       	834.60187      	834.4937       	834.5381       	834.90247      	834.63434      	834.49414      	834.5651       	834.7431       	835.0173       	834.52075      	834.6257       	834.75256      	834.68256      	834.61365      	834.70593      	835.30334      	834.66174      	834.6829       	834.6872       	836.6325       	834.71985      	834.7211       	834.76917      	834.8897       	834.7605       	834.77844      	835.3463       	834.71094      	834.74994      	834.86127      	835.4018       	834.7253       	834.80084      	834.9022       	835.2943       	834.787        	834.8183       	834.8516       	834.8778       	835.39496      	834.7726       	834.7949       	834.7934       	834.7891       	835.4477       	834.8144       	834.7776       	834.72925      	834.72614      	834.9985       	834.8917       	834.8351       	834.84094      	834.85187      	835.59625      	834.82135      	834.80566      	834.8324       	834.9151       	
835.90894      	836.13464      	836.19507      	836.4147       	836.0873       	836.0411       	836.1974       	836.2678       	836.20056      	836.27344      	836.45636      	836.29016      	836.4166       	836.1581       	836.135        	836.42017      	834.9661       	835.3887       	835.539        	835.0192       	835.7568       	834.7452       	834.86566      	835.24817      	834.42645      	834.5272       	834.68225      	834.56793      	834.4248       	834.4596       	834.7276       	834.6983       	834.5697       	834.4505       	834.3978       	834.746        	834.5947       	834.43915      	834.3637       	834.94055      	834.5882       	834.3901       	834.3019       	834.41296      	834.5238       	834.33105      	834.3253       	834.5072       	835.1654       	834.4133       	834.4476       	834.59216      	834.8163       	834.4601       	834.54065      	835.3174       	834.51495      	834.54645      	834.6166       	834.91644      	834.5742       	834.6262       	835.12915      	834.769        	834.75757      	834.7028       	835.43054      	834.6914       	834.7311       	834.75714      	835.14465      	834.7038       	834.77106      	834.8438       	835.67584      	834.7328       	834.77954      	834.816        	834.8801       	835.95593      	834.7817       	834.8062       	834.8466       	834.8253       	834.98236      	834.8012       	834.7509       	834.7393       	834.76575      	834.8258       	834.92896      	834.8236       	834.7836       	834.8373       	835.274        	834.83777      	834.7861       	834.8258       	834.8951       	835.33405      	
836.426        	836.7175       	836.66656      	836.69763      	836.8212       	836.7298       	836.73254      	836.7494       	836.6813       	836.8556       	836.4693       	836.66705      	836.72656      	836.8785       	836.87213      	836.4812       	835.4014       	835.7481       	835.46094      	835.51654      	835.3954       	835.6926       	835.19275      	835.23285      	835.75555      	834.9028       	834.9434       	835.0896       	835.75         	834.9825       	834.9553       	834.9512       	835.67224      	835.1433       	835.0475       	834.95776      	835.9007       	835.21277      	835.0541       	834.94684      	835.88477      	835.11163      	834.9669       	834.89185      	835.0351       	835.1263       	834.957        	834.93396      	835.004        	836.03516      	834.9565       	834.99524      	835.42957      	835.0526       	835.0258       	835.07587      	835.9164       	835.08856      	835.101        	835.2428       	835.287        	835.19727      	835.22424      	835.6658       	835.2237       	835.2207       	835.2357       	835.93774      	835.178        	835.2367       	835.2856       	835.6425       	835.1712       	835.219        	835.26636      	835.79333      	835.177        	835.2467       	835.30634      	835.29596      	835.71594      	835.26324      	835.2412       	835.21375      	835.2218       	835.21765      	835.3714       	835.2433       	835.19885      	835.1794       	835.2847       	835.3711       	835.2396       	835.29596      	835.32825      	835.52313      	835.2817       	835.26685      	835.2891       	835.37823      	
837.1697       	837.3691       	837.33624      	836.9313       	837.0395       	837.0287       	837.1332       	836.85925      	837.2624       	836.9565       	836.9828       	837.1176       	837.155        	837.28485      	837.19196      	835.8526       	836.2447       	835.79553      	836.40924      	835.78284      	836.0215       	835.47656      	835.5103       	835.6656       	835.3415       	835.3204       	835.4047       	836.1256       	835.28876      	835.28265      	835.2513       	835.7291       	835.4312       	835.3379       	835.2591       	835.5841       	835.43677      	835.2965       	835.35846      	835.5238       	836.30133      	836.699        	836.1882       	836.19684      	835.2322       	835.15326      	835.23535      	835.63464      	835.2398       	835.2501       	835.3536       	835.8414       	835.315        	835.3372       	835.9018       	835.3439       	835.34564      	835.40405      	835.635        	835.3832       	835.42456      	836.0697       	835.4216       	835.4466       	835.5237       	836.2285       	835.42773      	835.4277       	835.4601       	836.0595       	835.3767       	835.4327       	835.4557       	836.2545       	835.3681       	835.4361       	835.5448       	836.03876      	835.4202       	835.43317      	835.5042       	835.49384      	835.46155      	835.57294      	835.44855      	835.4354       	835.3837       	835.4783       	835.9799       	835.50305      	835.43854      	835.47565      	835.51605      	835.77924      	835.47925      	835.4756       	835.51825      	835.59705      	835.4939       	835.3984       	
837.196        	837.2741       	837.38464      	837.54034      	836.1187       	836.52374      	836.1819       	836.40765      	836.8867       	837.2571       	837.61096      	837.3569       	837.4686       	837.387        	837.35815      	837.6101       	836.07         	836.54         	837.46185      	837.3597       	837.0598       	835.74713      	835.7913       	836.44653      	835.4882       	835.50195      	835.6352       	835.72644      	835.5051       	835.48254      	835.8391       	835.657        	835.57935      	835.4918       	835.9551       	835.6612       	835.56616      	836.13403      	835.6283       	835.4984       	835.8409       	836.2874       	836.6741       	836.3739       	835.54895      	835.51697      	835.59656      	836.5022       	835.57263      	835.582        	835.6673       	835.9106       	835.64325      	835.7722       	836.6317       	835.68353      	835.75867      	836.5396       	835.8689       	835.8651       	835.98035      	835.9104       	835.814        	835.85046      	836.2395       	835.82227      	835.8268       	835.881        	836.46124      	835.83795      	835.8608       	835.93176      	836.4372       	835.823        	835.9081       	835.9509       	836.2796       	835.8925       	835.93256      	835.94995      	836.2488       	835.87366      	835.86066      	835.8682       	835.8734       	836.3644       	835.8881       	835.8265       	835.8546       	835.8383       	836.3242       	835.9146       	835.8958       	835.86597      	835.94336      	837.7805       	835.8891       	835.88574      	835.9884       	836.05334      	
838.6017       	836.8329       	836.98535      	837.3122       	836.7689       	837.8397       	838.21027      	837.9268       	838.1067       	837.99506      	837.8546       	838.01263      	838.03754      	837.8562       	837.7755       	838.1032       	837.7486       	837.9704       	837.89886      	837.97235      	840.3893       	836.33264      	836.73627      	836.095        	836.0936       	836.59247      	836.0474       	836.0208       	836.03345      	836.3499       	836.1358       	836.04755      	836.61096      	836.2158       	836.10974      	836.47174      	836.29254      	836.1531       	836.05334      	836.33734      	836.7652       	837.3623       	836.0896       	836.0006       	835.9592       	836.62665      	836.037        	835.9967       	836.0358       	837.5377       	836.0811       	836.0964       	836.79016      	836.1152       	836.10034      	836.82         	836.1729       	836.13873      	836.65564      	836.21594      	836.24097      	836.2987       	836.45404      	836.1759       	836.2352       	836.2581       	836.2213       	836.1911       	836.2701       	836.63306      	836.22754      	836.1907       	836.2784       	837.07184      	836.1935       	836.22906      	836.27246      	836.4135       	836.24445      	836.2825       	836.24304      	836.8037       	836.2221       	836.1758       	836.15564      	836.13965      	836.1982       	836.2843       	836.1455       	836.128        	836.1335       	836.1481       	836.23956      	836.17316      	836.12897      	836.1433       	836.39856      	836.1601       	836.10034      	836.15137      	
