# www.neaspec.com
# Scan:	 	Whitelight Imaging
# Project:	 	20251007_PS
# Description:	 	
# Date:	 	10/07/2025 13:27:15
# Scanner Center Position (X, Y):	[µm]	49.99	50.01	 
# Rotation:	[°]	0	 	 
# Scan Area (X, Y, Z):	[µm]	5.000	5.000	0.000
# Pixel Area (X, Y, Z):	[px]	100	100	1
# Interferometer Center/Distance:	[µm]	548.096	0.000	 
# Averaging:	 	1	 	 
# Integration time:	[ms]	5	 	 
# Wavenumber Scaling:	 	1.000000	 	 
# Laser Source:	 	4.5-15 µm nano-FTIR laser
# Detector:	 	R
# Target Wavelength:	[µm]	7.502	 	 
# Demodulation Mode:	 	Fourier
# Tip Frequency:	[Hz]	241,340.500	 	 
# Tip Amplitude:	[mV]	45.700	 	 
# Tapping Amplitude:	[nm]	77.130	 	 
# Modulation Frequency:	[Hz]	0.000	 	 
# Modulation Amplitude:	[mV]	0.000	 	 
# Modulation Offset:	[mV]	0.000	 	 
# Setpoint:	[%]	79.75	 	 
# Regulator (P, I, D):	 	4.206850	8.625812	1.000000
# Tip Potential:	[mV]	0.000	 	 
# M1A Scaling:	[nm/V]	0.426	 	 
# M1A Cantilever Factor:	 	1,000	 	 
# Q-Factor:	 	487.4	 	 
# Version:	 	2.1.11536.0
106.127106     	106.283615     	105.76532      	105.209015     	105.29739      	106.20168      	105.63618      	104.723076     	105.92305      	105.06955      	105.37103      	104.78342      	106.84387      	104.88664      	105.68979      	106.12918      	106.22763      	104.97493      	96.70445       	95.797676      	93.603516      	92.375824      	92.90249       	94.94112       	94.42576       	96.111336      	95.91442       	95.25305       	95.83109       	95.23724       	96.152954      	95.23434       	94.8606        	95.968376      	95.49538       	95.20472       	95.71224       	95.2515        	95.365204      	95.21798       	94.606674      	94.63147       	94.453606      	94.105286      	94.29437       	95.18233       	94.20956       	94.47982       	96.221535      	94.50309       	96.30529       	97.13812       	96.55906       	98.520805      	93.32407       	96.811424      	96.98679       	99.84981       	108.46489      	111.3276       	109.54028      	109.461784     	107.99537      	107.93596      	108.16551      	107.151566     	107.568596     	107.442825     	107.13458      	106.77978      	107.35214      	107.52588      	106.81311      	107.65958      	107.90894      	107.42434      	106.77073      	106.65429      	107.29597      	106.60901      	106.90834      	106.445015     	106.530304     	106.73991      	107.36509      	106.558945     	106.202286     	107.231064     	107.14818      	106.43249      	106.336754     	106.74681      	105.4713       	107.09455      	106.92467      	106.65605      	106.78876      	106.025055     	105.74375      	106.95586      	
105.45185      	105.716576     	106.7676       	107.13943      	106.620766     	107.51589      	107.093376     	106.25423      	106.36762      	107.830536     	106.31416      	106.671005     	106.47413      	107.16811      	107.28516      	107.085884     	107.79356      	106.539116     	98.180824      	96.27341       	95.022484      	94.38646       	94.39127       	95.20721       	97.03435       	95.55809       	97.45044       	97.0877        	99.57596       	94.79832       	95.44771       	96.67144       	95.65934       	95.95178       	95.90979       	96.315575      	95.3666        	95.254776      	96.06036       	95.541885      	97.241516      	95.88052       	96.264336      	96.26611       	95.64279       	95.53352       	97.005295      	97.80946       	99.14536       	96.58229       	97.714096      	98.356964      	99.10264       	97.998116      	97.51994       	99.67347       	101.70061      	103.97345      	113.086136     	109.77949      	108.52937      	108.44967      	108.67571      	107.42968      	108.19578      	108.15026      	107.901184     	108.04961      	107.91259      	108.383865     	107.71036      	108.15575      	106.90333      	107.544624     	107.317505     	107.853645     	108.35187      	107.02818      	108.2607       	107.67748      	107.66965      	107.053055     	107.79678      	107.46299      	107.46552      	106.83556      	107.31443      	107.386696     	107.2682       	107.65927      	106.65331      	108.577805     	105.89586      	106.90005      	109.69211      	107.334206     	107.59747      	106.66327      	106.50643      	106.75452      	
105.785965     	105.762474     	106.27111      	106.03622      	105.6972       	107.32756      	105.43383      	108.475296     	106.1995       	107.2569       	106.517845     	107.457375     	106.99055      	107.22402      	107.668396     	107.31455      	107.297195     	107.37073      	99.5498        	96.3932        	95.24392       	94.342865      	94.10507       	94.688515      	95.37414       	95.76043       	95.36682       	96.03481       	97.29553       	95.69399       	96.01734       	95.38836       	95.46738       	95.97726       	95.60516       	95.13333       	94.91726       	97.0754        	96.41942       	96.64652       	96.27745       	97.59008       	99.1975        	98.808525      	100.40295      	99.772316      	99.31052       	98.4267        	95.91799       	95.46313       	97.83593       	99.529625      	100.07373      	100.102234     	100.98934      	103.53546      	105.680695     	109.098145     	110.84301      	107.73141      	107.215805     	106.73437      	106.69147      	107.14178      	105.839615     	106.28473      	105.56572      	106.929756     	106.46588      	106.60143      	106.6948       	106.833984     	106.02667      	106.245346     	107.18375      	105.87601      	106.03369      	106.10661      	106.01101      	106.80267      	107.752785     	106.16555      	105.742096     	106.506775     	105.81423      	106.25586      	105.59531      	106.01001      	106.197685     	108.818306     	104.41808      	106.083305     	108.58693      	103.71802      	106.32781      	106.1924       	105.25417      	107.075035     	106.32709      	108.58738      	
105.07578      	105.20051      	106.569016     	106.90608      	105.72041      	106.81037      	110.11418      	106.83553      	107.34657      	106.58522      	106.74518      	106.650345     	106.44748      	106.482574     	106.1021       	106.32495      	107.142334     	106.96489      	102.52439      	96.38093       	95.74584       	94.12734       	94.08697       	95.46331       	95.42367       	95.724594      	95.54296       	95.787994      	96.5736        	95.02624       	95.64362       	94.5535        	94.80283       	94.84278       	94.92637       	94.09659       	95.06693       	95.50922       	98.487526      	96.065674      	98.38543       	98.06322       	100.10257      	100.4158       	100.20888      	100.70561      	101.72086      	103.416176     	104.40795      	101.72496      	103.37846      	104.99798      	105.59392      	106.72165      	107.07906      	109.19487      	110.910385     	106.412384     	107.3538       	106.31638      	105.96692      	105.61487      	105.94179      	105.74165      	106.78243      	105.45809      	105.85611      	108.80445      	106.73094      	107.02733      	108.08114      	106.41367      	105.42618      	106.35017      	108.2359       	106.43056      	105.9623       	107.654686     	106.77201      	106.16315      	107.86706      	106.91673      	106.63524      	105.976654     	106.80758      	106.404274     	105.07801      	105.62095      	106.451515     	105.10698      	105.8303       	105.21008      	105.97578      	106.69683      	105.37387      	107.29045      	107.42692      	107.01377      	107.13511      	106.70114      	
104.51971      	104.45036      	105.533966     	106.85689      	106.55972      	106.18925      	105.830826     	105.53543      	105.863335     	106.62112      	106.063034     	106.30378      	105.1571       	106.634315     	106.515884     	107.0551       	106.645615     	107.741        	103.0277       	96.03874       	95.19775       	93.73488       	93.13757       	93.90231       	93.95165       	95.00207       	95.41355       	95.41336       	95.374         	94.57218       	93.89047       	94.76134       	95.30658       	93.99254       	95.70893       	95.5749        	94.33464       	98.20148       	98.3585        	98.270744      	99.334076      	98.987175      	100.42196      	102.283134     	101.62902      	102.950966     	103.651764     	107.23075      	107.355675     	109.50145      	109.88086      	108.89986      	111.375946     	109.07513      	109.01614      	111.4206       	108.54822      	108.55352      	108.77948      	107.0694       	106.293175     	108.026695     	107.48511      	107.008446     	106.52602      	106.23415      	108.324875     	107.18781      	107.31513      	107.14277      	106.85358      	107.2521       	106.51405      	106.62006      	106.10272      	106.238625     	107.54116      	106.73158      	106.30722      	107.08923      	106.63216      	107.67414      	105.67635      	106.944466     	106.08538      	105.98465      	106.22274      	106.9315       	106.0782       	106.945656     	105.40573      	106.432014     	106.34777      	106.2928       	106.04276      	107.2169       	105.35394      	106.26315      	108.358536     	103.8281       	
104.080635     	104.75382      	105.289604     	106.30794      	105.70629      	105.61058      	106.01669      	105.5423       	106.45079      	106.29693      	105.472496     	105.90266      	105.41809      	106.790985     	105.28418      	107.10755      	106.18194      	108.06372      	104.22612      	96.96          	95.610504      	94.25825       	93.04258       	93.032074      	93.70812       	94.22988       	94.740234      	94.26192       	97.44517       	96.724884      	93.615364      	95.43843       	97.54818       	100.348434     	98.582565      	99.640495      	99.479         	97.75254       	99.00846       	100.652054     	102.30474      	102.50237      	103.51949      	106.21512      	108.151665     	108.57694      	111.33972      	111.66552      	111.44362      	108.1634       	108.27831      	107.88902      	106.62436      	108.20053      	108.04156      	109.44543      	107.03224      	107.278145     	107.964905     	106.137436     	107.080696     	106.49737      	106.56318      	107.16801      	105.76744      	106.40486      	106.798256     	107.78515      	106.70526      	106.53439      	107.00847      	105.81459      	108.78832      	106.39309      	105.05983      	106.92624      	105.90655      	107.000595     	107.4949       	106.47048      	106.66741      	107.30256      	107.065796     	107.092384     	106.96422      	106.47846      	107.543434     	106.45738      	106.18283      	109.40428      	105.36617      	107.113365     	109.39121      	106.704704     	106.2619       	109.50947      	105.07085      	106.44705      	106.65865      	106.36921      	
106.207184     	105.617294     	105.50619      	106.80424      	107.63961      	106.54153      	106.12137      	106.946266     	107.75928      	107.05521      	106.587166     	107.2214       	106.34596      	107.77851      	106.50093      	107.830055     	106.64333      	108.88786      	105.766945     	98.156815      	96.59803       	95.812225      	95.20862       	95.41974       	96.47344       	96.547485      	95.37809       	97.40787       	98.94645       	97.06025       	97.61539       	99.96967       	99.203064      	100.34165      	99.58555       	99.94721       	98.74475       	100.14275      	105.049835     	106.356255     	108.678955     	111.3875       	110.35438      	107.26389      	107.916565     	107.4694       	107.131905     	106.62279      	106.38151      	108.208046     	105.96436      	106.90644      	106.38003      	105.35756      	106.765366     	105.899345     	107.08707      	105.927025     	106.17106      	106.05143      	107.04992      	105.32226      	105.670654     	105.762726     	107.33487      	106.99597      	108.60582      	103.27655      	105.83036      	105.65189      	105.11884      	106.61695      	105.56421      	105.11905      	107.635155     	104.79029      	107.12317      	104.232056     	104.587204     	104.62484      	104.4707       	105.52185      	105.918755     	105.501015     	106.070305     	105.02932      	105.3091       	105.59548      	106.08531      	105.05295      	105.8168       	105.553566     	108.93985      	108.02699      	104.94054      	106.70661      	108.0576       	106.19097      	107.897545     	106.70653      	
104.56952      	104.629974     	105.78796      	107.47589      	107.24239      	106.68225      	107.083565     	107.05322      	105.835175     	107.257        	106.77829      	106.670395     	106.50931      	105.432625     	106.29321      	106.04781      	106.20922      	107.31132      	107.30218      	103.61204      	100.56747      	101.39884      	100.61302      	99.618355      	99.947395      	98.462204      	98.08439       	100.56538      	98.05299       	100.39929      	100.51385      	101.68226      	103.40892      	104.30437      	105.048744     	109.03075      	106.01283      	106.9754       	113.74681      	112.71791      	110.380394     	109.895386     	108.04971      	106.73933      	107.223816     	109.23303      	107.77147      	106.26944      	107.38179      	107.110596     	107.4539       	106.55002      	107.701035     	106.19273      	106.6844       	107.10982      	107.07109      	105.952614     	106.929        	108.3595       	107.13324      	106.069824     	107.33543      	106.45049      	106.36267      	107.73657      	105.5582       	107.62019      	108.47387      	105.88562      	107.01399      	106.40218      	106.012985     	105.99609      	106.13966      	106.4088       	106.82948      	105.76714      	106.34019      	106.81192      	105.794716     	106.91663      	105.9768       	107.265564     	108.610275     	105.34153      	105.78279      	105.84094      	105.432304     	106.30874      	106.73894      	107.25629      	106.81831      	105.624916     	106.15999      	106.19007      	109.26086      	105.33793      	105.701515     	106.55614      	
105.26376      	105.59552      	105.87348      	105.14668      	105.39976      	105.36169      	106.08152      	105.67084      	105.824646     	105.65814      	106.11404      	106.26388      	105.929924     	106.38353      	105.77789      	106.03627      	107.73923      	106.13096      	108.459366     	108.941284     	107.43366      	101.31113      	99.19685       	99.32289       	100.36813      	100.11213      	101.069534     	98.876724      	101.28197      	103.17847      	104.67254      	106.676796     	106.99106      	111.47663      	109.14173      	111.816315     	107.08811      	107.027245     	107.4914       	103.236725     	105.91111      	104.88379      	105.84497      	108.564926     	105.12363      	106.44777      	104.81396      	106.01068      	106.549545     	104.519485     	107.77176      	104.58939      	106.154106     	104.91823      	105.70204      	105.73567      	105.279655     	104.194855     	105.10573      	105.07416      	105.00546      	105.84078      	105.48612      	105.17944      	105.29686      	106.50208      	104.867546     	105.29614      	105.53336      	105.12038      	104.37786      	105.34979      	106.869446     	105.23421      	105.27706      	105.74189      	106.08264      	105.91897      	105.53763      	106.87318      	104.724335     	106.09721      	105.46583      	105.078316     	104.65132      	105.89719      	105.158775     	106.12493      	104.112625     	104.8489       	104.3122       	105.60913      	106.22846      	105.51758      	104.97489      	105.77757      	103.909775     	106.75234      	104.68713      	106.09034      	
105.52122      	105.08928      	105.83068      	109.47636      	109.28019      	107.42842      	107.02411      	106.31075      	106.106606     	107.301346     	106.651825     	108.54661      	108.75868      	106.15608      	107.23852      	107.72525      	107.75219      	108.54605      	107.30933      	109.214966     	112.4296       	108.25511      	104.59099      	104.608154     	104.821594     	103.934326     	103.59607      	106.52581      	106.730865     	110.58443      	110.67982      	108.16395      	107.40056      	109.226074     	110.276474     	107.537865     	108.68191      	107.59099      	105.194885     	107.1038       	111.42898      	107.91121      	107.22718      	106.94665      	107.34606      	106.05178      	104.95113      	107.02619      	105.9671       	105.97732      	107.27839      	105.672226     	107.328705     	104.886246     	105.27136      	106.729004     	106.2952       	105.80196      	106.12545      	106.98429      	107.24882      	105.8056       	107.1231       	106.104515     	108.64236      	108.979965     	107.58826      	106.16489      	106.639275     	106.30585      	106.95797      	106.1241       	107.08774      	106.950294     	106.25987      	106.2525       	106.80684      	107.58883      	111.10693      	108.13008      	108.88933      	106.202126     	106.86499      	106.94516      	106.45513      	108.19976      	107.06356      	106.98056      	107.339485     	106.31624      	106.50078      	105.82489      	106.56772      	108.19995      	106.30045      	107.00292      	107.20692      	107.216896     	106.07599      	106.14067      	
104.98571      	105.06422      	104.76094      	105.96428      	107.19583      	107.639626     	107.42552      	107.033844     	106.596504     	107.02637      	107.53819      	108.717995     	106.75044      	107.64908      	106.75317      	107.616264     	107.01559      	107.59922      	108.78156      	106.76597      	108.62773      	108.93572      	108.883835     	106.70857      	108.08606      	109.14467      	112.6049       	108.74788      	108.99323      	108.74853      	107.27168      	108.293465     	108.21014      	107.21617      	106.90832      	106.92979      	106.32788      	108.63344      	107.04302      	107.77974      	108.59919      	108.55153      	107.86573      	107.83338      	107.57215      	106.88552      	106.54202      	107.37697      	108.318344     	108.16621      	105.9831       	107.33051      	105.45532      	107.0061       	106.81615      	106.09887      	105.781555     	105.7981       	106.89795      	109.10779      	109.15231      	105.64037      	106.8207       	107.52948      	106.779015     	106.547264     	105.10822      	106.84915      	105.354576     	106.55073      	106.790504     	106.498474     	105.185196     	106.377975     	106.71408      	107.27128      	106.26681      	105.895584     	107.55712      	105.47242      	108.17823      	106.67645      	106.1656       	107.67755      	106.74123      	106.5056       	106.87534      	106.16216      	107.52505      	106.61872      	108.3804       	104.303734     	106.097275     	106.865585     	106.673195     	106.85756      	109.8943       	107.157776     	107.09446      	106.157875     	
105.29474      	105.85346      	107.279884     	108.21716      	106.74741      	106.5743       	106.34648      	107.13938      	107.241425     	106.317764     	107.07814      	107.24795      	105.70853      	107.35844      	106.94037      	106.69485      	106.57926      	106.82789      	107.44102      	107.239716     	106.52687      	107.23324      	108.88948      	107.053375     	107.532326     	106.82061      	107.06332      	105.87718      	107.23458      	108.1661       	106.810715     	106.26542      	106.6263       	106.52264      	107.88033      	106.538086     	106.75907      	106.53201      	106.91205      	105.27991      	106.25192      	106.473564     	106.90483      	106.37618      	106.23609      	106.31084      	106.571945     	105.83378      	105.95737      	106.317566     	105.7355       	107.2347       	106.632835     	105.5676       	106.10275      	105.14097      	105.785934     	106.303635     	106.77203      	106.392525     	106.35234      	106.24617      	106.40349      	106.095726     	106.7344       	106.48176      	106.97521      	106.45895      	106.544014     	107.1491       	106.32687      	108.06776      	106.88318      	107.245926     	106.08664      	106.59695      	107.04398      	106.03478      	106.89018      	107.38731      	106.76632      	107.13346      	107.86174      	106.57424      	107.5688       	106.75077      	107.16086      	106.312836     	106.788445     	105.97866      	106.61056      	106.152016     	107.04918      	107.419785     	106.84125      	107.072685     	108.68014      	105.74589      	106.48938      	106.93241      	
106.084625     	106.31908      	107.69345      	108.05985      	107.4563       	107.49519      	107.8923       	107.131165     	108.33815      	107.951485     	106.97706      	108.079834     	107.40314      	107.731255     	107.411        	107.07074      	108.12541      	107.42635      	107.18492      	107.81563      	107.95356      	107.36559      	107.40562      	107.90698      	108.04177      	107.66227      	107.031        	107.386375     	107.54116      	107.08846      	107.19491      	107.15495      	106.94008      	106.66318      	107.43063      	106.999344     	106.28806      	107.8595       	108.435036     	105.76559      	105.89368      	106.774345     	106.94211      	105.936295     	106.4388       	107.02809      	106.956116     	107.956924     	105.88298      	106.37969      	106.30032      	106.39774      	107.146706     	106.31222      	106.11088      	105.5261       	105.961365     	109.73469      	107.26673      	109.70762      	106.431564     	106.3491       	108.011955     	106.53295      	107.50141      	107.71562      	107.20476      	107.17972      	106.706375     	108.600555     	105.763176     	107.25028      	106.906685     	106.7166       	107.39469      	107.06924      	107.08552      	107.49962      	106.78157      	107.248566     	106.24919      	107.65572      	107.62495      	107.24901      	106.775505     	107.25715      	108.2482       	107.33924      	110.56775      	106.01093      	107.096466     	107.40356      	106.80121      	106.93691      	106.951035     	105.80968      	107.4034       	107.37566      	106.29722      	106.26323      	
105.39646      	106.1734       	109.02715      	108.413536     	106.22091      	108.29716      	108.649345     	108.01107      	107.94561      	109.24911      	107.171875     	107.32433      	108.185135     	107.23005      	107.21461      	107.89682      	107.37577      	106.95591      	106.7694       	107.48323      	107.1974       	108.86581      	108.876175     	108.39222      	106.78076      	109.69398      	107.62038      	106.40281      	107.69963      	106.34177      	108.79706      	106.57304      	106.52217      	107.65883      	106.49857      	106.92451      	106.96821      	105.729805     	105.91729      	106.68621      	106.85581      	107.605        	107.52242      	106.964935     	106.808426     	106.77302      	107.187386     	107.036995     	106.34331      	106.8632       	106.605865     	106.58133      	107.35816      	106.401505     	106.39492      	107.228516     	106.35087      	106.02197      	106.23116      	105.631355     	106.45208      	107.23513      	105.67905      	105.95041      	106.82771      	105.55688      	106.24421      	108.15847      	107.754036     	106.827576     	107.361496     	106.08353      	106.40964      	107.24288      	106.42575      	107.2262       	106.65547      	106.62406      	107.53708      	105.744774     	107.8875       	106.47197      	106.334694     	106.15356      	106.86075      	107.01885      	105.56412      	108.18555      	105.98299      	107.99091      	106.88915      	108.01774      	106.06955      	106.981995     	106.038795     	108.800186     	105.20672      	106.23251      	106.863045     	105.4679       	
105.04096      	105.42733      	107.37021      	108.07592      	106.54578      	107.13638      	107.98283      	108.3185       	107.160446     	107.68176      	107.24362      	107.82706      	108.47721      	106.87782      	107.32353      	106.98832      	107.5988       	110.172516     	107.06454      	107.54413      	108.15486      	106.897804     	107.64323      	106.62872      	106.7246       	107.45379      	106.66081      	107.69982      	106.729744     	106.80836      	106.2689       	108.072556     	107.10955      	106.652855     	106.97172      	106.29926      	106.77468      	106.6042       	105.88839      	106.327225     	106.13945      	105.92163      	106.28475      	105.563194     	107.370476     	105.58656      	106.36749      	107.01547      	106.53271      	106.3866       	106.07253      	106.64743      	106.26807      	105.442924     	107.92885      	105.305504     	105.28408      	106.71255      	105.92322      	106.27989      	106.501205     	107.04462      	107.207016     	106.73256      	105.488945     	108.149        	104.921524     	106.07326      	110.40606      	109.45264      	107.98967      	107.56806      	107.07196      	107.775856     	107.37701      	106.46693      	107.18956      	107.26864      	107.983116     	107.32238      	107.51124      	106.57285      	106.62308      	107.16699      	109.11779      	108.42699      	107.5038       	106.17607      	107.93052      	106.55255      	106.11114      	106.4769       	106.4252       	106.15235      	107.057625     	109.55672      	106.950134     	107.717766     	107.03179      	107.203354     	
105.75563      	106.19769      	106.80456      	106.539085     	105.95883      	106.71067      	107.770065     	106.983734     	109.39343      	106.54165      	106.39689      	106.60489      	106.60701      	105.94686      	106.50518      	106.107376     	107.18612      	107.720924     	106.81064      	106.449554     	107.26825      	106.89983      	107.02487      	107.58443      	107.134476     	106.750656     	106.22171      	106.84206      	107.19629      	105.91182      	106.418        	106.773636     	105.946434     	106.68854      	106.45807      	107.24634      	105.9436       	106.36932      	107.33966      	106.084915     	106.70665      	106.319405     	107.673256     	106.38346      	106.37175      	107.039734     	106.49141      	106.89437      	106.57645      	106.20405      	107.16436      	107.36863      	107.14771      	107.19502      	106.94748      	105.91026      	106.07495      	106.77635      	106.44808      	106.56396      	106.75551      	110.2766       	105.74963      	106.01436      	107.263214     	107.70686      	107.14361      	108.28786      	106.013016     	107.08533      	106.7038       	107.324875     	106.52305      	108.7845       	107.704315     	110.005875     	106.26671      	106.95975      	106.602196     	108.541824     	107.58217      	107.50655      	107.73097      	108.71753      	108.156334     	106.0431       	106.56256      	106.83869      	107.96723      	106.0216       	106.311386     	106.97251      	106.78696      	107.34944      	106.74117      	107.04876      	106.39728      	107.33071      	107.018776     	106.25292      	
105.478874     	106.28034      	106.91629      	106.42259      	106.00531      	106.00975      	108.26949      	108.91729      	107.062256     	107.27921      	108.35736      	107.78046      	108.256805     	107.28361      	106.91895      	107.11835      	108.187386     	107.12333      	108.62077      	107.25519      	109.24554      	107.45091      	107.77915      	107.64194      	108.03093      	107.34289      	106.58672      	107.74686      	106.940796     	107.39255      	108.112144     	107.18902      	107.326614     	106.947205     	107.47102      	107.73127      	107.087204     	108.25249      	108.138275     	106.671555     	106.389        	107.65114      	106.4301       	107.17731      	106.74013      	106.64679      	107.3          	107.48612      	106.03912      	107.41525      	105.969376     	107.017395     	107.36468      	106.23864      	106.00209      	108.128044     	106.07679      	106.56354      	107.63122      	106.20103      	107.80506      	107.82899      	107.77309      	106.827995     	107.63322      	106.89625      	107.19452      	106.27114      	107.19199      	107.51575      	107.25576      	108.745445     	106.83106      	107.13581      	107.345894     	107.3208       	106.97015      	107.44566      	107.18015      	106.404755     	107.794395     	105.7264       	109.19883      	111.47355      	107.31565      	107.43905      	108.13154      	107.69564      	107.48857      	107.48483      	106.798065     	107.304405     	107.92123      	106.79748      	108.751305     	108.01706      	107.61861      	107.60655      	107.087395     	107.18365      	
105.316635     	105.62984      	106.579575     	107.15188      	107.167046     	107.18308      	108.00792      	107.13077      	106.28869      	107.00281      	107.413506     	106.45764      	107.28768      	106.196175     	108.6853       	106.538055     	107.17913      	107.47191      	108.2475       	107.11996      	107.83135      	107.653076     	108.057785     	107.19396      	107.965096     	106.58836      	108.57949      	106.12027      	107.49602      	107.59654      	107.90734      	107.99892      	107.848206     	106.700424     	107.43503      	107.21579      	107.41007      	107.35628      	107.73564      	106.203285     	106.95221      	107.173935     	107.43054      	106.09321      	106.99926      	107.62162      	105.591896     	108.112564     	106.56139      	107.32107      	107.463524     	107.25655      	106.91326      	106.67303      	107.42359      	107.345406     	107.804985     	105.63568      	107.596794     	108.11024      	106.65926      	106.570435     	108.1076       	106.88044      	108.14301      	109.42479      	106.72231      	107.553024     	106.85208      	106.273186     	106.56182      	107.50919      	107.045906     	108.17804      	108.11339      	109.43394      	105.987976     	107.85036      	107.85144      	107.72182      	107.64148      	106.09171      	108.27459      	107.17139      	106.821915     	108.083786     	105.70231      	108.80164      	106.50388      	106.5741       	105.21249      	107.2667       	105.8923       	106.33023      	107.57906      	105.62362      	106.64148      	106.50773      	107.70403      	106.7744       	
106.51639      	106.94672      	107.119095     	107.44476      	107.02799      	106.37291      	106.51489      	107.232735     	107.1071       	107.59929      	106.69325      	106.65367      	106.80219      	106.55336      	106.29164      	107.32133      	106.79226      	107.22138      	107.45049      	106.59122      	106.58994      	106.71648      	107.800354     	106.95333      	106.63674      	106.92114      	107.21059      	106.26321      	106.61612      	105.74825      	107.39486      	106.5967       	106.44393      	106.0737       	105.73564      	106.93675      	107.06746      	106.44896      	106.22016      	106.979805     	106.42907      	106.517136     	106.392624     	106.761055     	106.42957      	106.831535     	107.17841      	106.621605     	107.10272      	106.21326      	107.17478      	107.53627      	106.62635      	106.211235     	106.99018      	105.7025       	106.50488      	106.46756      	105.83321      	106.08034      	106.678116     	107.588264     	106.91451      	108.11722      	107.71227      	109.07973      	110.119774     	107.28725      	107.461586     	107.90846      	106.759636     	107.8222       	108.02599      	107.1529       	108.12936      	108.03298      	107.705185     	108.19169      	107.39145      	107.6801       	108.13972      	107.95471      	107.60187      	107.87394      	107.29983      	109.375786     	107.79319      	106.89251      	107.987015     	107.69061      	106.571526     	107.31184      	107.32903      	108.592        	107.51091      	107.00161      	102.980675     	100.50837      	97.07342       	95.8008        	
105.537415     	105.88104      	106.42041      	106.91734      	107.63645      	106.88796      	107.65744      	106.19664      	106.6711       	107.22322      	106.09803      	107.39895      	107.59058      	108.388245     	107.22673      	107.0555       	107.099976     	107.39605      	106.45667      	106.59242      	106.7814       	106.46013      	107.159134     	107.284706     	105.68032      	107.76916      	106.93219      	105.46501      	106.68496      	106.4144       	107.174164     	108.082565     	105.713844     	107.97032      	107.38445      	106.41405      	108.092415     	107.69687      	107.14981      	106.86407      	107.30139      	107.02625      	106.05319      	106.91162      	106.61678      	107.74849      	107.85782      	107.2782       	107.107796     	109.297424     	107.22274      	107.29818      	107.74564      	106.87636      	107.147835     	106.20436      	106.55917      	107.57763      	107.436455     	105.82452      	108.43826      	107.20281      	107.83713      	108.904884     	106.358986     	107.88204      	108.39526      	107.11232      	107.09641      	107.82656      	106.89987      	108.00533      	107.72904      	107.165276     	108.50996      	107.22696      	107.70093      	107.97539      	107.216835     	107.802284     	107.5512       	106.73179      	107.083244     	107.58166      	106.96056      	107.21444      	108.82923      	107.09442      	107.546165     	107.72846      	108.11614      	105.99727      	100.974915     	97.06592       	96.201546      	95.34873       	95.51229       	94.41163       	93.74742       	93.44215       	
106.46114      	106.84909      	108.324936     	107.07232      	107.566864     	105.95424      	107.10516      	106.72813      	107.39797      	106.93324      	107.46163      	108.13505      	106.01049      	107.99107      	108.700775     	107.180534     	107.26552      	107.2756       	106.75684      	107.14035      	106.57054      	106.97676      	107.28074      	106.40675      	106.9967       	106.676445     	107.52353      	104.94134      	106.31028      	106.75474      	106.53902      	107.07892      	106.99212      	107.33095      	107.72008      	106.16445      	106.910904     	107.00671      	106.92872      	106.5574       	106.42874      	106.876816     	105.92513      	107.0781       	106.638725     	106.707306     	108.42364      	107.83245      	106.99437      	106.73072      	107.52839      	106.30827      	107.059654     	106.55319      	106.74359      	107.29419      	106.201385     	106.82666      	106.17593      	105.00613      	106.17878      	107.88274      	107.28857      	107.38081      	106.963554     	107.697495     	106.80823      	107.44227      	107.07991      	107.778305     	106.7524       	107.90086      	107.250786     	108.06982      	106.857185     	108.34481      	107.00267      	107.629974     	107.18615      	106.69199      	107.05596      	107.25864      	107.02473      	107.2281       	107.22702      	108.3467       	108.216934     	107.62677      	105.94343      	97.29477       	94.67935       	94.19865       	94.23159       	93.13824       	92.89064       	92.391396      	92.58017       	92.70522       	92.68362       	93.14304       	
106.352104     	106.68073      	107.16537      	107.05264      	107.58565      	108.32224      	107.92725      	108.09126      	107.83215      	107.44374      	107.74015      	107.87454      	107.79768      	107.16589      	107.66816      	107.5602       	107.02419      	106.670784     	107.69354      	107.5307       	107.71428      	106.76679      	107.25387      	107.78023      	107.25369      	107.44545      	107.03164      	106.04373      	106.69528      	107.56054      	107.08099      	106.97983      	109.20227      	106.10444      	108.812195     	108.113914     	107.39825      	107.37225      	108.10171      	107.810684     	107.78076      	106.533676     	105.828445     	107.60327      	106.88623      	107.710594     	107.33255      	108.80218      	112.583885     	108.69887      	108.61326      	107.6662       	106.80219      	107.55036      	107.441986     	107.7996       	107.68147      	107.54996      	107.58786      	106.69266      	106.01772      	106.58706      	107.17186      	107.88505      	107.02266      	108.93498      	107.554695     	107.686676     	108.31351      	107.578964     	109.29316      	106.79653      	108.59236      	106.49677      	108.262245     	107.34442      	107.48922      	106.85684      	107.98601      	108.5565       	107.35319      	108.70172      	108.180565     	108.14973      	106.81507      	107.849525     	109.63216      	103.83978      	97.13253       	93.812294      	92.78556       	93.52171       	92.67222       	93.87963       	93.19844       	93.84987       	93.45398       	96.09525       	93.72712       	94.84807       	
105.69878      	105.62175      	106.47037      	106.490974     	105.65631      	106.353745     	106.47309      	105.72567      	105.95904      	106.21712      	106.33571      	106.61269      	106.48276      	107.34111      	106.34309      	106.08279      	106.23341      	106.47832      	107.08456      	106.969925     	106.1779       	106.25368      	106.58647      	106.95968      	106.75906      	107.78925      	107.41715      	108.9047       	107.02144      	107.02335      	109.272415     	106.14918      	107.14279      	107.78518      	107.18378      	107.71573      	106.495224     	106.74276      	108.0282       	106.76005      	106.666565     	106.86824      	106.821434     	106.94954      	107.14005      	107.06437      	107.734314     	106.82489      	107.153885     	108.77342      	105.39469      	106.75432      	108.762535     	105.59764      	107.40323      	107.14281      	107.73268      	105.98402      	107.024284     	107.4851       	107.83043      	108.59518      	105.7901       	107.16049      	106.91295      	107.30065      	107.91422      	108.005905     	106.251        	106.37599      	107.34274      	105.74632      	107.07741      	108.55483      	106.35514      	106.76195      	107.06774      	106.87196      	106.82797      	107.367424     	106.685295     	106.654526     	106.70423      	108.509865     	105.8917       	105.26221      	106.37347      	97.9234        	95.3034        	93.65696       	92.22736       	93.08723       	93.22708       	93.41056       	93.41671       	94.46307       	93.54981       	95.290054      	95.70885       	96.793564      	
105.861595     	106.06618      	106.794495     	106.429886     	106.588585     	106.18774      	105.87677      	106.316086     	105.88841      	106.55821      	106.382286     	105.81236      	106.12006      	106.14095      	106.23218      	106.84794      	107.13227      	107.37171      	107.69048      	106.713486     	106.25016      	106.39993      	107.33336      	106.57272      	107.24451      	107.258736     	106.42997      	107.19431      	104.69868      	105.48418      	106.822205     	104.90594      	105.80802      	106.41487      	105.999855     	106.06278      	105.99779      	105.34948      	107.37105      	111.3418       	109.04572      	107.548035     	106.910484     	106.69564      	105.86648      	106.78844      	106.239876     	106.374535     	105.97763      	106.47103      	105.94676      	105.70227      	106.20106      	106.0456       	105.923645     	106.68004      	106.449844     	106.33583      	106.219536     	106.423065     	106.72553      	106.70712      	106.565285     	106.145645     	107.25059      	107.03285      	108.59229      	111.65652      	108.989876     	108.04061      	107.72797      	108.55597      	108.44053      	106.55996      	107.63822      	107.04541      	106.42273      	107.11027      	106.779915     	106.55008      	105.91498      	106.604805     	105.91513      	106.219475     	107.90315      	105.73608      	105.908066     	97.828705      	95.92959       	93.517105      	92.168106      	92.41908       	94.131195      	95.7754        	94.82748       	95.12768       	94.27108       	95.55755       	97.43429       	93.71512       	
105.95508      	106.2232       	106.65379      	106.648796     	106.67761      	106.65023      	105.59497      	106.233086     	106.817604     	106.28241      	105.979645     	106.25843      	108.79497      	106.53902      	109.31611      	107.56161      	108.568146     	108.543236     	106.64342      	108.93676      	107.65987      	107.732086     	107.593216     	108.87258      	108.78559      	107.93017      	112.45115      	111.20268      	109.28626      	109.54503      	108.47525      	107.856064     	107.76978      	107.92721      	108.35649      	108.19536      	107.87579      	106.77123      	106.84452      	108.19808      	107.736176     	107.702324     	107.36617      	108.44541      	109.19407      	110.02984      	108.59626      	107.15145      	107.14387      	107.789246     	107.70749      	108.09813      	109.08577      	107.30834      	108.29318      	106.89353      	108.07423      	107.37946      	106.57894      	106.42729      	107.11978      	106.564095     	108.67846      	107.127975     	105.91288      	106.707756     	106.47617      	106.94539      	106.42784      	106.32914      	105.99244      	107.227875     	106.88613      	106.44357      	106.50809      	106.45239      	106.795074     	107.26588      	109.753944     	106.56942      	107.049545     	107.291954     	106.703        	107.678215     	106.63038      	107.38328      	106.61192      	99.67229       	97.02625       	95.57806       	93.79954       	94.44211       	94.44065       	94.73603       	94.88118       	95.30404       	95.53968       	95.180984      	95.911476      	95.0294        	
105.28449      	105.7695       	105.816505     	105.365814     	105.485535     	106.327934     	106.263535     	106.75125      	106.24719      	106.58348      	106.15314      	105.44314      	106.0416       	106.20523      	105.52663      	105.437874     	105.967155     	106.27303      	106.112564     	105.23903      	106.8382       	105.57594      	106.612686     	105.90635      	105.88018      	106.69791      	105.66586      	106.03256      	107.157974     	106.25714      	105.85724      	105.98595      	105.68605      	106.36473      	106.88901      	105.84802      	106.307335     	108.106895     	106.546135     	107.363304     	107.03524      	107.03542      	106.973885     	107.34686      	106.54207      	107.77422      	108.089584     	106.21991      	108.18676      	107.445694     	107.29399      	106.68102      	107.55837      	106.28508      	107.16742      	106.24762      	107.12695      	108.3206       	108.50492      	106.32873      	107.51788      	106.994675     	108.32051      	107.30392      	107.10796      	107.938934     	108.1074       	107.0236       	106.63891      	106.52771      	107.23933      	106.23801      	106.369064     	107.039085     	106.7411       	105.59905      	107.22904      	107.0193       	106.84212      	107.64942      	106.71561      	105.8312       	106.83402      	107.35127      	106.72185      	107.63629      	108.3269       	99.6581        	97.13204       	95.47591       	93.8111        	93.298615      	94.06033       	95.129776      	95.668         	96.81357       	94.591896      	94.544266      	95.76648       	96.544495      	
105.811455     	106.05684      	106.07339      	106.413734     	106.79521      	106.12104      	106.05608      	105.723595     	106.628426     	105.96155      	106.55072      	105.99006      	106.32562      	107.02942      	106.27515      	106.817566     	107.53754      	107.09909      	106.14862      	108.66236      	107.270424     	107.18921      	107.75222      	106.84789      	107.70836      	106.21091      	106.87086      	106.45523      	107.43322      	105.43527      	106.54532      	106.551254     	106.33534      	106.239334     	107.10319      	107.86464      	109.421684     	105.87711      	106.77372      	106.27983      	106.97317      	106.65234      	107.30096      	106.88286      	106.26121      	106.99056      	107.54448      	107.57901      	106.574        	106.65909      	106.7174       	106.51559      	107.75512      	106.66707      	107.949326     	107.72521      	107.54037      	106.90598      	106.64521      	106.87786      	107.19042      	109.55608      	104.588615     	109.68816      	111.199394     	109.87735      	108.94578      	108.28955      	108.76769      	107.72076      	107.16865      	106.29096      	106.80471      	107.698074     	106.39536      	107.01622      	106.89873      	107.11488      	107.13156      	108.157745     	107.80393      	107.17343      	107.672935     	107.06485      	107.729515     	107.76576      	107.98198      	103.79083      	97.71202       	96.23295       	95.006355      	93.49925       	94.35171       	95.91468       	95.29548       	96.88393       	96.02175       	95.84553       	95.544205      	96.0084        	
106.1874       	106.62499      	106.506096     	106.336044     	106.05891      	106.36705      	105.98084      	107.43898      	108.24147      	106.43145      	108.07319      	108.26375      	107.04984      	107.3637       	107.14078      	107.43255      	107.53358      	107.07739      	108.84584      	106.39356      	107.42502      	108.102455     	106.709        	107.71582      	108.11899      	107.65632      	108.05         	106.503174     	107.10951      	107.48584      	107.24781      	106.94927      	107.22783      	107.44314      	105.90462      	106.47363      	107.62427      	106.57224      	106.8619       	106.0374       	107.954315     	107.2605       	106.912186     	106.860344     	106.81064      	107.68473      	107.07058      	106.49962      	107.10835      	107.54064      	105.80811      	107.438484     	106.86775      	107.59735      	106.90372      	106.74851      	106.57453      	106.64586      	104.49236      	97.70845       	96.30835       	96.941696      	98.88443       	102.25788      	109.883316     	109.88944      	111.631325     	109.61531      	107.15301      	107.0978       	107.253265     	107.145164     	106.52523      	106.848305     	107.30407      	106.87342      	106.32069      	106.50443      	106.370514     	107.205986     	106.4278       	105.92734      	106.73825      	106.28381      	106.4061       	106.71614      	106.971405     	106.88416      	99.12662       	96.561554      	94.81269       	93.2807        	93.42907       	94.14572       	96.003365      	97.31278       	96.822         	95.5679        	96.50429       	96.57728       	
106.96973      	107.29345      	107.33925      	107.881874     	109.29841      	106.68132      	106.35233      	106.64255      	106.86921      	106.70482      	107.47944      	107.34806      	106.95143      	107.11449      	107.016426     	107.9244       	108.35913      	108.48845      	107.55998      	107.74856      	107.97307      	107.75266      	107.565926     	108.1313       	108.05903      	107.15329      	109.01143      	107.02596      	107.68104      	108.692856     	109.636406     	106.97884      	107.28887      	107.09165      	107.31202      	108.351456     	106.96428      	107.553215     	107.202095     	106.995056     	107.18961      	106.35842      	107.396065     	106.641426     	106.651054     	108.573906     	107.514595     	107.38884      	107.17588      	108.9094       	106.1078       	106.7812       	107.94808      	107.541916     	107.2966       	100.05655      	96.81521       	95.782814      	96.00999       	93.48516       	91.968506      	91.98531       	93.42809       	95.79469       	102.81267      	107.12473      	108.82439      	106.730606     	106.44768      	107.00551      	108.42722      	107.46767      	106.98866      	107.82145      	107.49516      	106.913315     	107.81257      	107.3454       	107.27245      	107.00517      	107.27883      	107.40119      	106.92805      	108.047386     	107.657265     	106.4491       	107.748146     	108.24375      	101.490395     	97.89613       	97.04572       	94.86251       	94.9221        	95.18506       	95.58468       	96.61341       	96.83233       	96.41986       	97.07249       	97.64876       	
105.7094       	105.82285      	106.18044      	106.69126      	106.259766     	105.884995     	107.18274      	106.25498      	106.402626     	107.1462       	107.7681       	107.04922      	109.03833      	108.04134      	107.719376     	107.6272       	109.634895     	110.831215     	108.698105     	108.161385     	108.3076       	107.810326     	108.42136      	109.093        	107.805824     	108.26155      	107.78961      	108.03273      	108.19902      	107.63616      	108.370384     	107.213715     	107.5965       	109.922806     	109.19438      	107.72161      	108.36912      	107.65866      	108.00247      	106.14033      	108.34756      	109.236244     	106.98219      	107.96651      	107.01732      	108.1455       	106.81372      	109.22982      	106.86516      	105.66781      	101.578865     	98.46739       	96.322235      	96.02032       	95.81853       	93.879845      	94.07109       	93.2676        	93.23363       	92.602646      	92.41059       	93.49028       	93.72915       	96.69932       	99.56865       	109.56704      	106.12245      	109.22302      	107.45974      	107.34459      	107.41464      	107.179634     	109.19047      	106.28085      	107.863556     	108.2379       	107.66235      	106.69702      	107.07683      	106.90352      	108.114525     	107.192665     	107.6672       	106.934074     	107.3521       	108.66701      	107.7455       	108.00298      	104.4783       	98.345         	97.26478       	95.113174      	96.243256      	94.981         	98.089966      	96.45533       	96.11884       	97.812485      	96.84253       	97.07121       	
105.65255      	106.26108      	107.49919      	107.452965     	106.281395     	106.11971      	106.9046       	106.40851      	105.996506     	107.73266      	108.084656     	109.11182      	106.49985      	108.13269      	109.10429      	106.875916     	108.52799      	108.735016     	107.65034      	108.73908      	107.71595      	107.708786     	108.141624     	109.057274     	107.8206       	108.12053      	107.54987      	108.79123      	107.20612      	108.30844      	107.984665     	106.926285     	107.35311      	107.57126      	107.127144     	106.868904     	108.10254      	108.548515     	107.53783      	108.111336     	107.63594      	107.48535      	107.19914      	108.70383      	107.089455     	103.52821      	101.362144     	98.33556       	96.64405       	95.83211       	94.367035      	93.64768       	94.84306       	93.08177       	92.9086        	93.766136      	92.95          	92.989044      	93.45346       	93.8469        	92.623         	92.3987        	93.766815      	96.43965       	99.42914       	106.88946      	110.231384     	107.95518      	107.83043      	108.65489      	107.678535     	108.9729       	108.4119       	109.38004      	107.70244      	108.46983      	108.68957      	108.5085       	107.35262      	106.840775     	107.768585     	107.6595       	107.85914      	108.63399      	107.124916     	108.21554      	108.25032      	108.26177      	103.35011      	98.15288       	96.7409        	95.73215       	95.18633       	94.960785      	95.306465      	95.948326      	96.56914       	96.76729       	96.65652       	96.40451       	
105.523186     	104.663086     	104.6055       	107.42974      	111.49824      	107.135216     	107.247025     	107.00483      	107.70979      	107.67987      	106.78243      	106.68768      	108.59776      	107.596725     	109.70601      	109.75728      	108.758026     	109.26624      	107.77045      	109.60776      	106.749954     	107.41762      	108.49442      	108.19966      	106.9446       	107.32863      	109.39232      	107.342186     	108.52944      	107.79814      	107.230705     	106.76706      	107.94563      	107.64221      	105.57183      	108.24736      	106.587166     	108.33892      	106.45647      	107.78965      	108.26965      	104.37657      	100.24176      	97.62675       	95.74477       	95.492744      	94.95336       	93.31681       	92.97665       	93.1881        	92.69939       	93.23008       	92.372505      	94.69078       	95.48292       	94.68923       	94.28701       	94.78037       	93.87456       	92.86195       	93.207306      	94.26704       	93.448         	94.55382       	100.87322      	103.907036     	110.5386       	108.58302      	107.98369      	107.58519      	106.9202       	107.26946      	107.67723      	106.7643       	108.365074     	106.7444       	107.08263      	107.60966      	106.43078      	107.62814      	108.3562       	105.73704      	106.573395     	109.21486      	106.19512      	107.31547      	108.72925      	111.9105       	105.76837      	98.99948       	97.034134      	95.86921       	93.8928        	94.691986      	95.42042       	95.73106       	96.48826       	96.925224      	96.81603       	96.76595       	
106.50664      	105.83707      	105.96912      	108.469055     	110.595665     	111.17453      	109.13439      	108.839775     	109.014175     	108.20755      	108.06981      	107.57274      	108.01332      	108.2254       	107.39946      	107.68597      	107.85473      	108.47986      	108.535736     	108.11867      	108.36237      	108.37432      	108.63287      	107.84543      	107.751305     	108.335464     	108.495995     	108.68967      	108.78409      	107.854355     	108.03432      	106.31214      	106.630646     	109.13918      	108.15116      	106.4844       	105.6839       	99.14863       	97.7031        	97.31823       	95.63796       	93.989         	93.7669        	93.74553       	93.34043       	93.285355      	93.454994      	93.2302        	95.63861       	94.090164      	94.95881       	93.935684      	93.97126       	95.273796      	94.77172       	95.06482       	94.95089       	95.3748        	94.18069       	95.04199       	94.877975      	93.7395        	93.76831       	93.630066      	97.92081       	104.866714     	110.7272       	106.32549      	106.23177      	106.95167      	107.909004     	107.99512      	107.54904      	108.642586     	107.59866      	107.750496     	107.101906     	107.90264      	107.92624      	107.19974      	107.83796      	107.97959      	108.05788      	108.16527      	106.273186     	108.84108      	108.42315      	109.23595      	108.34454      	100.91465      	97.918915      	96.38272       	94.78465       	94.95914       	96.205956      	97.762054      	95.73367       	96.01607       	96.59702       	97.28944       	
108.27438      	108.21772      	108.25159      	107.50815      	107.95145      	109.130615     	106.933975     	107.0761       	108.71214      	107.86243      	107.304634     	108.33899      	106.47385      	107.471275     	108.17921      	109.47639      	111.44348      	108.54483      	108.14691      	108.62454      	108.05316      	109.52438      	107.73211      	107.79017      	108.298454     	107.27965      	108.25156      	107.46234      	107.785255     	108.02134      	106.94825      	105.80331      	107.529236     	104.610565     	98.541016      	96.53214       	96.10358       	93.59684       	94.22308       	93.125854      	92.87499       	92.56392       	92.738495      	92.648         	93.982216      	93.166176      	93.30184       	95.249         	93.164566      	95.00304       	94.48852       	94.14781       	96.402664      	94.34846       	94.878685      	95.68661       	95.213         	94.35387       	94.91028       	94.94235       	95.59083       	93.87144       	93.58489       	92.72112       	95.110435      	103.78581      	110.16636      	108.39506      	107.839134     	108.03666      	108.07216      	107.08633      	105.99552      	107.07762      	109.86195      	106.22678      	107.64227      	107.12609      	108.33292      	105.931145     	106.25056      	106.396454     	107.12555      	106.58328      	106.89351      	107.65183      	107.001144     	107.32078      	107.72354      	103.83877      	97.84966       	96.26472       	94.60358       	93.69453       	94.02708       	95.05468       	96.855484      	96.78647       	94.20114       	95.67814       	
104.50978      	104.93645      	107.65057      	111.58908      	110.074104     	108.158844     	107.173        	107.012566     	107.55877      	107.558876     	108.338295     	107.28599      	107.392555     	108.53798      	107.44609      	107.77908      	110.23368      	108.92647      	107.849205     	107.60514      	107.436485     	106.78815      	108.623924     	107.94788      	108.09962      	108.01947      	106.23276      	107.592445     	108.11666      	105.00404      	98.11227       	95.546326      	95.16592       	94.88438       	93.4961        	93.05373       	93.51343       	94.98649       	93.92537       	93.70555       	93.10095       	93.3324        	93.42734       	93.0956        	94.06204       	94.16737       	94.26667       	95.782074      	93.566925      	94.76949       	95.33683       	96.07034       	96.464645      	95.37007       	95.13142       	94.34715       	94.83454       	94.560394      	94.471954      	95.0257        	94.35888       	94.66388       	93.78351       	95.21348       	94.575325      	99.90811       	109.31249      	111.3453       	109.05147      	108.33251      	108.96235      	107.304855     	106.53388      	108.84481      	108.81871      	105.71814      	106.960846     	107.294525     	108.124245     	107.525856     	109.14781      	106.89479      	108.49448      	106.01576      	107.62674      	111.37107      	108.253815     	109.67342      	107.62248      	105.8217       	99.30347       	96.65165       	95.18605       	95.043755      	95.71943       	96.774734      	96.27879       	98.05006       	96.275276      	96.464905      	
106.44246      	107.440094     	107.192566     	106.00761      	105.63921      	105.69724      	105.69786      	106.368256     	105.340034     	106.13103      	107.838455     	108.08756      	107.42455      	108.765236     	108.175285     	108.31184      	107.94093      	108.48622      	108.18705      	107.97949      	107.98338      	109.771675     	107.48654      	109.88591      	110.70622      	107.766685     	106.91571      	107.62962      	100.77205      	95.391014      	92.70035       	92.95229       	92.99842       	92.76984       	93.185776      	93.571014      	93.51045       	93.54637       	92.92264       	93.433754      	93.24895       	93.19248       	93.21172       	93.87549       	94.88544       	95.89099       	94.85888       	94.90991       	96.00041       	95.072365      	95.268875      	95.95808       	96.08442       	95.32792       	96.43464       	96.62301       	95.793564      	97.73235       	94.40435       	95.72821       	93.68569       	94.21664       	94.13173       	93.4868        	96.014244      	98.7203        	104.70419      	111.09756      	108.2284       	106.85845      	106.08545      	106.73443      	107.67408      	109.30341      	105.61116      	108.71413      	107.466934     	106.76084      	106.51649      	106.98077      	106.46432      	107.5023       	108.744446     	108.42553      	108.99907      	106.46632      	107.843544     	108.122665     	107.606964     	106.16782      	99.6569        	97.4428        	94.94991       	94.14469       	94.01734       	94.760864      	96.464424      	96.9821        	97.09656       	97.01044       	
106.14264      	106.23723      	106.84517      	106.64862      	106.246574     	106.58271      	106.22136      	105.77699      	106.61763      	106.91018      	106.69786      	106.84181      	104.42252      	105.92866      	106.80996      	109.83015      	105.98047      	108.25509      	106.06321      	106.84209      	108.79913      	107.05746      	107.273445     	107.86728      	107.054504     	108.38047      	109.30558      	100.76503      	95.62948       	93.13609       	92.63106       	92.561226      	93.09104       	93.18072       	93.82882       	94.38802       	94.83641       	94.26995       	96.54146       	93.960686      	94.61597       	95.56064       	95.3919        	94.57382       	94.73002       	95.866875      	96.03174       	94.906364      	95.65145       	95.690765      	96.94612       	94.96778       	96.03617       	96.40352       	94.934265      	95.671005      	97.218025      	95.08863       	95.04217       	95.27368       	96.22565       	95.1144        	93.90766       	92.4331        	94.81332       	97.42693       	103.65504      	109.23834      	107.981544     	106.40197      	106.887955     	107.63396      	107.68921      	106.69265      	106.67232      	107.56771      	106.685295     	106.93947      	106.44324      	107.26629      	105.78683      	106.8152       	106.46878      	106.41094      	106.55275      	106.586464     	109.09152      	106.40349      	106.97973      	108.58818      	99.583244      	97.10664       	95.90351       	94.06424       	93.754745      	94.11837       	95.57728       	96.91394       	95.98626       	97.43879       	
105.46178      	106.480835     	108.11368      	108.01963      	108.60725      	107.17396      	106.442375     	106.21368      	107.614525     	106.6305       	106.553795     	106.1214       	106.87292      	106.002975     	107.774704     	104.73635      	105.52666      	106.422295     	105.09943      	105.1839       	104.98426      	107.33796      	109.644196     	107.81764      	109.50047      	107.53291      	106.42707      	97.38813       	96.17574       	94.69374       	93.75577       	93.44758       	93.8467        	93.95412       	94.13543       	95.82475       	94.90928       	95.496704      	96.66767       	95.05114       	95.36011       	95.47525       	96.62747       	96.01628       	95.24307       	96.31766       	95.946686      	96.397736      	97.19457       	97.93342       	94.30329       	95.50263       	97.66516       	95.629456      	95.52432       	95.42723       	97.792336      	95.78939       	95.77717       	95.55789       	95.45356       	94.95338       	94.48643       	92.91871       	93.59656       	96.31543       	103.103966     	109.21848      	111.28605      	108.15487      	109.9438       	107.99328      	109.784935     	106.385826     	107.45732      	109.45276      	106.94351      	108.63187      	107.10676      	108.21094      	107.35671      	107.990166     	107.93753      	108.94167      	107.25762      	106.927414     	109.17919      	106.75198      	108.08786      	108.10367      	102.97981      	97.621025      	96.225845      	95.14872       	94.34943       	94.349266      	94.71764       	96.67187       	96.86202       	96.30937       	
105.4732       	105.48182      	108.12742      	108.01511      	106.98413      	105.988815     	107.639496     	108.66603      	107.98256      	107.42088      	108.7813       	107.30041      	106.0967       	107.786095     	109.382        	106.47309      	108.84556      	107.09893      	107.740906     	106.79711      	106.76843      	106.7547       	107.22618      	107.05206      	108.07639      	107.59999      	104.405334     	97.57131       	95.87144       	94.11877       	94.347534      	94.4977        	94.621765      	95.75976       	94.30905       	96.17027       	96.515495      	95.760544      	96.54161       	94.7061        	94.953         	95.1539        	95.37305       	97.11958       	96.66842       	95.37483       	97.05469       	96.00922       	96.51035       	96.741936      	96.73241       	97.85138       	96.220184      	95.86935       	96.72361       	97.22255       	95.89783       	96.35489       	95.374146      	96.16852       	95.687614      	95.53089       	93.84787       	93.41379       	93.04427       	93.867134      	98.52955       	108.27116      	110.72663      	107.66944      	106.614655     	107.23359      	107.34443      	106.95924      	107.76838      	106.87304      	108.33263      	106.73408      	106.78235      	107.672585     	106.713425     	107.21238      	107.65999      	106.546326     	108.45275      	106.878624     	107.662315     	108.47467      	106.83926      	107.30434      	107.20544      	98.240814      	97.0599        	94.66532       	93.52243       	94.19501       	94.75749       	97.06452       	96.16864       	96.00367       	
105.6824       	106.68236      	108.8964       	106.97638      	106.091866     	107.26098      	108.400536     	108.696396     	107.6622       	108.14708      	108.354805     	108.92873      	106.27864      	108.113846     	107.78777      	107.85348      	107.99216      	106.791824     	107.28548      	107.824265     	108.056656     	110.4782       	107.55267      	109.9991       	106.8278       	108.16713      	107.015526     	98.48443       	97.222084      	95.604614      	93.36824       	93.73083       	94.78819       	95.75314       	95.006676      	96.32407       	96.169075      	96.632996      	96.19474       	97.45525       	95.67338       	96.240105      	96.60596       	96.10241       	96.4127        	96.062805      	96.03179       	96.51117       	96.13679       	97.6106        	95.588295      	96.23636       	96.310455      	95.80686       	96.70658       	96.411766      	96.53094       	96.93253       	95.76646       	96.19959       	94.69607       	95.34369       	94.68542       	94.940605      	92.604004      	93.58156       	99.0232        	105.04517      	112.60848      	108.998726     	108.94545      	108.10099      	107.9816       	107.74102      	107.38785      	107.09991      	108.39883      	109.78347      	107.71462      	108.16215      	107.26681      	107.31535      	109.50365      	107.02616      	106.941864     	108.8082       	108.06055      	107.13321      	108.80303      	107.6993       	107.07556      	99.04354       	96.78477       	95.93435       	94.59341       	94.68777       	96.863556      	98.228035      	95.86801       	95.73405       	
104.8326       	104.99454      	105.82833      	106.96579      	105.74295      	106.07193      	107.03174      	106.17822      	105.89221      	106.17122      	106.53259      	106.820755     	106.57991      	106.06727      	107.7204       	106.87032      	106.08322      	106.43676      	106.195946     	107.10967      	105.691895     	106.87284      	109.850494     	106.565575     	107.57329      	107.94442      	108.17808      	103.06058      	96.50554       	95.641         	93.68745       	93.34692       	94.13095       	94.48132       	95.26269       	95.35951       	95.59069       	95.43471       	96.824905      	96.56573       	97.261284      	97.00545       	97.65585       	95.93596       	96.72384       	95.79951       	95.95231       	96.59308       	98.13059       	96.30288       	97.29785       	95.909294      	96.51941       	98.34695       	95.50101       	96.49613       	96.325195      	97.22853       	96.14171       	96.90268       	95.4329        	95.70372       	97.01333       	93.4251        	92.69017       	94.1697        	96.799095      	104.026825     	108.30734      	109.795265     	108.80551      	108.103165     	109.59583      	107.515755     	106.49041      	107.64943      	107.08885      	106.24045      	107.49939      	106.97014      	107.731384     	107.24953      	106.20847      	106.58181      	106.70366      	107.71732      	107.216484     	107.58481      	107.55237      	108.25701      	105.91424      	100.886086     	97.62758       	95.93937       	94.02722       	93.51099       	94.110016      	96.15508       	98.27563       	99.47303       	
104.92632      	106.547066     	109.799805     	110.35822      	107.19005      	107.87325      	106.60518      	107.32047      	107.440094     	107.02356      	107.38637      	108.84695      	108.06967      	108.61277      	107.537544     	108.42557      	107.708824     	107.35332      	106.1401       	107.880424     	106.62951      	107.51542      	109.41155      	108.14111      	106.31733      	109.810776     	108.61405      	105.77286      	98.73262       	96.77209       	95.3815        	94.14006       	94.25367       	94.95903       	96.63132       	98.57992       	97.508965      	96.67412       	96.39107       	95.89701       	96.707726      	97.749         	96.21318       	97.77191       	95.847565      	96.632835      	96.2971        	97.795         	95.23489       	96.417435      	97.19473       	96.87937       	97.53          	95.61057       	98.13398       	96.842476      	96.718834      	97.17826       	95.075165      	96.93647       	98.429535      	94.907         	95.275444      	95.461754      	96.41352       	96.85462       	97.837944      	105.137886     	107.21801      	112.437065     	109.29826      	109.211365     	108.77145      	108.08268      	108.93944      	107.91254      	106.742874     	108.81375      	107.01873      	108.68475      	108.30918      	106.90129      	107.53065      	107.30173      	107.84031      	108.40158      	107.2021       	108.54193      	108.06766      	108.324715     	108.62375      	101.444046     	97.10707       	96.067245      	95.36859       	94.40449       	95.83844       	95.37764       	95.97501       	97.15136       	
93.290054      	94.67478       	98.1785        	101.56695      	109.00208      	110.620155     	109.59451      	107.388565     	107.29545      	108.34136      	108.2614       	108.773445     	106.86711      	106.53879      	107.872765     	107.232285     	107.078285     	107.73666      	106.91905      	106.47         	108.04965      	109.93029      	108.2215       	108.86962      	111.45411      	110.959915     	110.76282      	108.0011       	98.66319       	96.734245      	95.89156       	94.48733       	94.55308       	95.546684      	96.98208       	97.174576      	97.309814      	97.41662       	98.10295       	97.123764      	95.76807       	97.2837        	98.676056      	100.29156      	97.827095      	96.92699       	97.29292       	98.09387       	97.05605       	98.28077       	97.484985      	96.675354      	96.83999       	97.13679       	96.48868       	97.40082       	96.8277        	97.23447       	96.724335      	96.64423       	95.17118       	95.94736       	93.287384      	95.0685        	94.02556       	94.93006       	95.74083       	101.58268      	108.29109      	109.821884     	107.15804      	108.349396     	108.384346     	108.199135     	107.64117      	110.17065      	108.11679      	108.23461      	108.5242       	108.199554     	109.11755      	106.74499      	108.14363      	108.096306     	107.8481       	108.5367       	111.403786     	107.4034       	107.124535     	108.16642      	108.929245     	104.52383      	99.07052       	96.33849       	95.840515      	94.40575       	95.12257       	96.68869       	99.52798       	95.919426      	
91.67719       	91.38923       	95.31223       	98.996704      	104.452095     	111.02426      	107.7636       	109.685295     	106.91305      	106.68168      	107.38844      	106.61699      	106.433304     	106.727806     	108.47882      	107.59978      	107.041466     	107.78328      	108.8237       	107.333115     	107.00797      	107.64522      	108.645096     	106.99796      	108.032005     	107.477776     	108.87197      	108.11137      	102.831        	97.88199       	96.867935      	94.66473       	94.529335      	94.46585       	95.27601       	96.7209        	96.25709       	97.37081       	96.52766       	95.53774       	96.896515      	96.21366       	95.52867       	96.100655      	95.61534       	94.826706      	96.163734      	96.30238       	98.50221       	96.64192       	96.86094       	96.540184      	96.92149       	96.492775      	96.82155       	97.251884      	95.844246      	97.43629       	96.11609       	96.5707        	96.57619       	94.38078       	95.359215      	95.52952       	94.00904       	93.48703       	95.807724      	97.33566       	107.59121      	112.015396     	108.0565       	106.6943       	107.36552      	106.5594       	106.37029      	106.97825      	107.351234     	106.85867      	108.076744     	106.87952      	106.7396       	106.856224     	107.926094     	107.644035     	106.60697      	107.123665     	108.00685      	107.492935     	107.12557      	107.993835     	107.6228       	106.94039      	98.92327       	97.158226      	95.364944      	94.40884       	94.44103       	94.967476      	97.85183       	95.65044       	
91.36561       	92.01403       	93.10528       	95.4158        	102.33551      	111.67472      	107.708405     	109.070076     	108.31455      	110.17066      	108.59706      	106.979034     	108.29732      	106.04966      	107.50154      	108.11892      	110.1444       	107.532455     	106.90984      	107.955475     	107.767        	108.12129      	109.24642      	107.71251      	108.14114      	108.181656     	108.65895      	112.480995     	102.27922      	98.41223       	97.39251       	96.93945       	94.12754       	94.33833       	95.50992       	96.997986      	96.32358       	96.37492       	98.4916        	97.06177       	96.75893       	98.07829       	96.572464      	96.251495      	96.52508       	96.99459       	96.81823       	96.571304      	96.01579       	96.97044       	97.04051       	97.02246       	96.30827       	96.80326       	95.8198        	96.994675      	95.86855       	95.99328       	97.45571       	95.811295      	96.01716       	95.42794       	95.13185       	95.340324      	95.284134      	95.07187       	94.14204       	96.29438       	104.06642      	109.78943      	105.83981      	108.5543       	106.20455      	107.823235     	107.06406      	106.28402      	107.51166      	108.95151      	105.91397      	106.88049      	106.25769      	107.15016      	106.45633      	107.13336      	106.33157      	107.393555     	107.215744     	107.23426      	107.16515      	108.06363      	107.29129      	108.36419      	99.39936       	97.55617       	96.112595      	95.29651       	95.32685       	95.72848       	95.64867       	96.34959       	
91.290085      	92.202126      	93.71746       	96.834915      	101.24382      	106.677795     	110.09972      	107.378845     	107.75365      	107.765114     	107.11609      	107.356865     	108.869934     	107.86132      	108.282845     	109.41042      	108.17053      	108.47189      	108.60503      	110.39678      	108.02398      	108.952644     	110.57464      	109.23829      	110.22123      	109.36341      	109.4679       	110.13578      	108.04761      	99.67041       	97.2545        	95.83948       	94.79821       	94.77391       	95.6927        	97.584496      	95.924034      	97.99005       	98.24697       	97.35988       	97.138504      	96.87802       	98.044266      	96.068474      	96.9691        	97.01394       	96.91601       	96.85011       	97.66364       	97.17845       	96.051285      	96.3254        	97.4625        	96.25432       	96.165924      	96.245995      	96.50554       	96.05797       	95.83779       	96.30728       	96.92436       	95.01906       	95.01875       	95.0907        	93.255005      	93.46192       	94.279396      	94.14372       	101.641754     	109.516205     	106.72659      	108.045334     	107.80146      	106.801384     	107.041725     	106.78816      	107.52811      	107.84187      	107.40859      	107.52064      	107.57784      	108.52808      	108.189384     	107.59594      	107.6485       	107.80276      	107.86647      	106.86536      	107.32602      	107.31771      	108.436874     	108.18679      	102.984344     	98.28568       	96.65979       	94.72016       	94.64215       	94.643684      	96.35084       	96.4348        	
91.38979       	91.70864       	93.22602       	95.88759       	100.446655     	105.21678      	109.6929       	106.80233      	107.79598      	108.836006     	107.640465     	109.47992      	106.51867      	106.38177      	107.20098      	111.70445      	109.07945      	108.39849      	108.0276       	108.122635     	107.87738      	109.35375      	109.181465     	110.14901      	108.92427      	107.386536     	107.6364       	108.19005      	108.67297      	101.64294      	97.521385      	96.09982       	94.97186       	94.04572       	95.16971       	96.670135      	96.27387       	95.723076      	97.4518        	96.110344      	96.06761       	97.01302       	96.38402       	96.61068       	96.22011       	95.67303       	96.94183       	95.75787       	96.654945      	96.80422       	97.120186      	96.710266      	96.94377       	98.01365       	96.6644        	96.87514       	96.53395       	97.05057       	96.978836      	96.2106        	96.02976       	95.84508       	96.59682       	95.525314      	95.235306      	93.11298       	91.89034       	93.63626       	97.86705       	106.91208      	109.06555      	106.190186     	109.921394     	106.85244      	106.3633       	107.91214      	107.1906       	107.4407       	107.50982      	106.937546     	107.46023      	108.19229      	107.387        	107.158485     	106.96392      	107.30593      	107.20602      	107.70826      	107.213356     	107.539825     	107.60422      	107.4674       	106.200356     	98.28541       	97.53263       	96.400795      	95.0924        	95.3902        	96.00278       	96.78723       	
92.152145      	92.344185      	93.73882       	96.28958       	99.96853       	105.86989      	111.029976     	107.96664      	106.79538      	107.82187      	111.32431      	111.29381      	109.57665      	108.78594      	107.90624      	110.74009      	107.26211      	108.05538      	108.839584     	109.43408      	108.36119      	108.49474      	109.73809      	109.17098      	108.20621      	108.47247      	108.03259      	107.809326     	109.26322      	104.76079      	99.0966        	97.545074      	96.56235       	95.31854       	95.32377       	96.366264      	96.99692       	98.98494       	96.79793       	97.75016       	96.42378       	97.372406      	97.95123       	96.64805       	98.89182       	95.22349       	96.54457       	97.44176       	96.08819       	96.11739       	97.07144       	97.3336        	97.0285        	96.034195      	97.545044      	99.80121       	96.53247       	96.09703       	96.7388        	97.313545      	96.4089        	97.23125       	95.78324       	97.95101       	94.75809       	94.148125      	94.10416       	94.68465       	100.53849      	104.19357      	111.97268      	107.882225     	107.32269      	108.41393      	106.74459      	106.85046      	107.452385     	106.968056     	107.91601      	109.320244     	107.88849      	107.922226     	107.59346      	107.47029      	105.75629      	107.71021      	108.71137      	108.68595      	107.059715     	107.865524     	108.11627      	110.06028      	106.971344     	100.07948      	98.548         	96.64875       	95.29514       	96.67295       	95.89441       	96.78664       	
93.73219       	93.48917       	94.174385      	96.90408       	97.503235      	102.95347      	111.533356     	108.80838      	108.620995     	107.70225      	108.69173      	113.041084     	109.316795     	109.547104     	108.389534     	108.10077      	108.53883      	108.2078       	107.51083      	108.74874      	112.38934      	111.31207      	109.91224      	108.14775      	108.61725      	107.368965     	109.05569      	109.19454      	109.39695      	108.81026      	100.72383      	98.144775      	96.08073       	95.16634       	95.94269       	96.45286       	96.97125       	97.19439       	97.02795       	98.4286        	96.626755      	97.01225       	97.97975       	96.95559       	95.936         	97.46456       	97.0717        	96.83077       	98.15624       	97.31954       	96.82757       	96.808304      	96.68641       	96.90032       	96.86294       	96.649414      	96.61249       	97.919174      	95.69932       	97.90366       	95.6655        	96.40101       	95.98566       	95.93266       	95.19827       	94.016426      	92.82086       	94.178856      	97.88993       	104.18383      	112.46028      	109.43869      	109.09491      	108.43585      	107.800674     	109.049194     	107.75953      	108.0333       	108.09514      	107.75073      	107.46452      	108.98217      	106.78064      	108.36233      	107.66988      	107.21249      	109.24604      	109.6222       	108.15437      	108.74085      	107.94875      	108.39635      	108.20798      	99.21579       	97.91616       	95.45332       	93.883514      	93.854515      	94.92124       	96.03649       	
94.06376       	94.43485       	95.1571        	94.69041       	96.64705       	101.25823      	108.30924      	111.82867      	109.01771      	108.76242      	109.03156      	108.1557       	110.5165       	108.20681      	108.631294     	107.84932      	107.8924       	108.60782      	108.075066     	108.02826      	110.20994      	106.63039      	107.98851      	108.291214     	108.15867      	107.34601      	108.17481      	108.26182      	108.57136      	106.38059      	98.776634      	97.40295       	94.77791       	93.72958       	94.465744      	95.91872       	97.85278       	95.57777       	97.19487       	97.68118       	96.80363       	99.04836       	98.441826      	97.37317       	98.24339       	96.18542       	98.039894      	96.781235      	96.405876      	96.97014       	97.276306      	96.35435       	97.05088       	96.165054      	96.78074       	96.407234      	96.21247       	97.024475      	96.57083       	96.32349       	96.8512        	96.27548       	96.62156       	96.185234      	94.460144      	94.78835       	95.94632       	93.49615       	97.601326      	103.09717      	110.843704     	108.88421      	108.7886       	108.705986     	107.85729      	108.303795     	107.86993      	108.25749      	107.7633       	106.94898      	107.9415       	107.788956     	110.4539       	107.44941      	107.38307      	108.54122      	107.37587      	107.8543       	108.57426      	108.56779      	108.53944      	108.55931      	109.44058      	104.79528      	97.55178       	96.3598        	94.78154       	94.31044       	94.80728       	96.81475       	
93.70545       	93.68305       	93.73832       	94.84495       	96.95485       	100.581505     	106.55476      	111.86115      	107.75177      	106.84491      	107.404564     	107.9402       	107.54899      	107.81825      	109.19441      	108.39218      	107.207954     	107.028496     	109.83369      	107.952        	107.55026      	108.53007      	106.184425     	108.99905      	111.84101      	109.18966      	108.58341      	108.34171      	108.27365      	107.74317      	99.96251       	96.7384        	95.51173       	94.2608        	94.650925      	95.21089       	96.71664       	95.85781       	98.52134       	96.461525      	96.305176      	97.13232       	95.00337       	96.09888       	97.15209       	95.77082       	97.885284      	98.03856       	98.460785      	99.33162       	97.32963       	97.37501       	97.96949       	97.169464      	97.55315       	96.838165      	99.736275      	98.37046       	97.04482       	98.47209       	95.80186       	97.21279       	95.823784      	96.114365      	94.98418       	96.167         	93.45306       	93.190544      	95.119896      	100.72524      	108.03245      	111.34899      	107.50507      	106.98376      	107.229004     	107.66928      	106.9311       	107.46355      	108.33189      	107.46888      	108.28904      	107.244736     	107.29615      	108.21212      	108.59652      	107.82318      	108.54536      	107.36355      	106.900856     	108.129944     	107.57832      	108.82045      	107.577126     	105.26624      	98.357254      	97.38992       	97.53403       	97.95689       	96.86616       	96.60392       	
93.642624      	93.88061       	93.75926       	94.565414      	96.93663       	98.49966       	106.11593      	110.766594     	107.7325       	108.28775      	109.039246     	108.26266      	108.38419      	108.67117      	106.89023      	107.72306      	108.07389      	107.36532      	107.76341      	110.295586     	109.30745      	109.29881      	106.77296      	108.001305     	109.88774      	108.05957      	108.37851      	107.94321      	107.91245      	109.44641      	101.186295     	97.8894        	96.82364       	95.56023       	94.99768       	95.503654      	96.537895      	97.862335      	96.32133       	99.64339       	97.3658        	99.08037       	96.2514        	97.15959       	97.79799       	95.75688       	96.81125       	97.016495      	95.51918       	96.352165      	96.946         	96.584984      	96.8782        	97.51987       	97.5134        	97.5883        	96.06708       	97.57459       	96.57484       	96.26183       	96.802155      	97.872055      	95.898865      	95.07034       	94.745605      	94.7807        	93.77715       	92.193344      	94.05935       	96.98485       	107.10621      	111.975136     	107.4134       	106.5746       	107.232086     	107.981514     	106.0558       	107.20161      	107.95345      	106.66622      	108.44208      	106.050644     	107.46085      	107.291504     	107.154236     	107.109795     	108.012245     	107.07519      	108.08574      	106.31641      	107.02356      	107.94594      	107.25564      	107.38603      	102.42835      	100.76209      	100.69857      	99.47639       	98.59853       	97.09521       	
94.09964       	94.06551       	94.73738       	95.39737       	95.13501       	98.77303       	102.881424     	111.382935     	108.47064      	108.201004     	107.14117      	107.740486     	109.584785     	106.29406      	107.0667       	108.9698       	107.53209      	109.92995      	111.01054      	108.259224     	107.38102      	109.183655     	108.60691      	109.04321      	106.984215     	107.10108      	107.293564     	108.73583      	108.39402      	109.81881      	106.40621      	99.12438       	97.428474      	95.30248       	95.122955      	94.726585      	95.66231       	96.39918       	97.06177       	94.75168       	97.15895       	99.663376      	97.68173       	97.43566       	97.17111       	98.060486      	96.4395        	98.095634      	96.21604       	96.462296      	96.39657       	97.81226       	94.9609        	96.40174       	95.921394      	97.10611       	95.742294      	96.39714       	96.10552       	96.95542       	97.091995      	95.89709       	95.664116      	95.75565       	97.049515      	94.306206      	92.57565       	93.61601       	95.41647       	94.49463       	102.35063      	111.54523      	105.53063      	106.272865     	107.65633      	107.04713      	106.8814       	106.539474     	107.36535      	107.83509      	106.093956     	106.38933      	107.92363      	107.503944     	107.66711      	106.42626      	107.43971      	107.55731      	107.36101      	111.07694      	106.3613       	106.94287      	108.68965      	108.398735     	108.389626     	108.15279      	103.464935     	100.91091      	102.152176     	99.89332       	
94.45353       	94.47115       	94.76958       	94.29424       	95.782104      	97.98457       	101.06198      	108.610245     	110.774506     	108.23918      	107.89901      	106.057816     	107.65713      	108.84204      	107.38786      	107.8336       	108.1413       	108.22317      	107.54197      	108.663414     	107.09565      	110.64287      	111.94635      	109.88654      	108.076256     	108.71844      	107.96224      	107.38974      	108.40471      	108.81497      	107.78783      	100.20829      	97.81376       	96.37024       	95.06893       	95.09905       	95.70241       	96.58803       	97.01427       	96.829124      	96.500336      	97.059         	96.84064       	97.94624       	96.91908       	96.98924       	97.748         	96.22928       	96.24611       	97.01394       	96.190605      	96.93133       	96.925125      	95.97145       	97.32318       	95.739426      	97.1537        	96.858215      	95.35593       	96.626785      	96.703156      	96.289536      	96.43668       	96.57665       	95.623505      	96.10968       	94.369865      	94.15735       	95.36424       	94.2829        	100.59547      	109.962875     	110.607445     	106.774        	107.56241      	107.17979      	107.03624      	107.584816     	106.57571      	108.251854     	106.31899      	106.99913      	110.038704     	105.32937      	106.504        	107.07539      	106.51192      	107.13006      	107.411385     	107.26575      	107.84321      	108.28447      	108.38776      	108.52955      	107.95776      	109.41263      	103.97526      	103.98866      	105.31356      	104.4632       	
94.635635      	94.31651       	94.22817       	93.802895      	94.01602       	95.261536      	98.18804       	106.294365     	110.86839      	106.82658      	107.06506      	106.80689      	107.669266     	107.632904     	107.70084      	108.02869      	107.96139      	107.875824     	108.44533      	107.73359      	108.63801      	106.661026     	108.3028       	107.849045     	107.4198       	106.82105      	109.35097      	106.041245     	107.89621      	108.14548      	108.28041      	101.48856      	97.93649       	96.35096       	95.11533       	94.4257        	95.15445       	95.414894      	95.860756      	95.85786       	97.528534      	97.57902       	94.76013       	97.06823       	98.08214       	95.78039       	95.10931       	95.769264      	97.81583       	97.627106      	95.467896      	95.76169       	96.61385       	96.18314       	97.38966       	95.98634       	96.97974       	96.111534      	96.7156        	96.358635      	97.144394      	95.63541       	96.2849        	96.57912       	95.92628       	93.71217       	94.86279       	94.21878       	92.82972       	93.95478       	100.397644     	105.636215     	112.44202      	107.7361       	107.95956      	105.932526     	106.61032      	107.27239      	106.79214      	107.14047      	108.31636      	106.39153      	106.40582      	109.030495     	105.570435     	107.63655      	107.60594      	107.013954     	107.68878      	106.49769      	107.11589      	109.49947      	105.904755     	107.361115     	108.01885      	108.50652      	108.03249      	108.79097      	109.067314     	106.79948      	
94.8457        	94.92175       	94.62032       	95.258316      	92.64741       	94.97519       	96.44885       	104.33131      	111.89844      	108.10314      	107.99447      	107.90619      	108.63609      	106.99107      	107.47303      	108.86568      	106.794754     	107.846436     	106.69501      	108.007454     	107.92198      	108.86236      	107.382256     	106.72444      	107.071014     	108.37082      	106.79534      	107.7415       	108.25477      	107.82904      	109.65942      	104.35318      	98.3122        	97.119354      	95.68472       	94.45823       	95.45957       	95.7404        	96.112         	97.14019       	96.719536      	97.19837       	97.32699       	96.12405       	96.97606       	96.28494       	96.32081       	96.302         	96.691124      	98.54552       	99.878105      	97.53902       	96.94371       	96.68602       	97.71376       	95.98467       	97.144714      	97.068535      	97.501366      	96.01674       	96.71461       	97.46152       	95.72177       	95.52131       	95.43574       	94.883514      	94.631035      	94.08206       	93.220634      	93.965576      	97.7848        	103.14745      	109.15131      	109.49652      	106.85012      	106.71228      	106.38848      	105.74575      	106.99516      	106.72748      	107.852104     	107.86026      	106.47869      	107.32237      	106.1974       	107.8239       	106.137054     	106.97452      	106.71546      	106.393974     	106.95752      	106.86179      	109.178604     	107.46409      	107.20062      	108.47472      	108.33177      	107.56707      	106.95126      	106.88614      	
94.41006       	94.04692       	94.55138       	94.93365       	95.26669       	95.17113       	96.73273       	100.739136     	110.98361      	108.943825     	108.249756     	108.2646       	108.592926     	107.41816      	108.428986     	107.72415      	106.92882      	107.848694     	106.659294     	107.44762      	106.28292      	106.775604     	108.11395      	107.347374     	107.34085      	107.77733      	107.51319      	108.12668      	108.63629      	107.19016      	107.75699      	107.40136      	98.08362       	96.789536      	94.08691       	94.08697       	94.93681       	96.02002       	97.66287       	96.681984      	96.30127       	97.68956       	96.80453       	99.65987       	97.636185      	96.78716       	97.490685      	96.179276      	96.78072       	96.42386       	97.049995      	96.662476      	96.66108       	96.66273       	96.670906      	97.04547       	96.42774       	96.09028       	98.16829       	97.235985      	96.35396       	96.55534       	96.2951        	97.12551       	96.37137       	94.035706      	95.05811       	93.75314       	95.17914       	91.909706      	95.27791       	102.07506      	107.463554     	111.301605     	107.36886      	107.76478      	106.821815     	107.583664     	108.0097       	107.17079      	107.42052      	106.49797      	108.41922      	106.88515      	107.61593      	107.8037       	108.05336      	108.04996      	108.2807       	108.29085      	107.9122       	106.94267      	107.57249      	108.35563      	107.55129      	108.55104      	109.01834      	107.601295     	107.86358      	107.48319      	
94.508835      	94.804596      	96.191154      	96.39739       	94.31604       	94.95485       	96.42548       	99.028496      	106.13855      	111.82022      	107.2815       	106.35444      	108.321526     	108.19574      	107.679375     	108.52254      	107.32601      	107.67189      	108.91691      	108.19848      	107.574394     	108.188774     	109.16401      	108.73409      	107.32268      	107.58234      	108.53301      	108.09788      	107.72403      	107.933975     	108.2796       	105.33877      	96.06633       	95.679596      	95.57487       	93.72391       	95.55828       	95.23816       	95.49528       	96.613815      	96.626854      	96.00056       	97.53226       	96.35481       	95.65348       	96.98144       	96.75072       	96.68682       	96.33717       	96.321686      	97.23086       	95.5567        	97.466125      	98.149826      	96.41067       	98.262276      	95.895256      	96.9615        	96.10213       	97.43603       	97.04317       	95.61841       	95.986984      	96.10236       	95.76788       	94.41438       	94.434204      	95.929344      	92.67891       	94.154625      	91.901794      	99.06508       	105.90971      	113.37         	109.298164     	108.4994       	107.516365     	108.62376      	108.328415     	106.42534      	107.51075      	108.28761      	108.59096      	108.73645      	107.82102      	107.33154      	107.77844      	108.677864     	107.25626      	108.636795     	108.23686      	107.50136      	108.135925     	107.93029      	106.316864     	109.810265     	109.377884     	109.67145      	108.09294      	109.753654     	
95.01693       	94.76022       	95.84093       	95.92273       	93.60601       	93.85123       	95.45229       	100.28781      	103.60485      	109.19512      	108.56902      	108.241585     	107.52763      	107.831955     	107.67177      	106.747925     	106.61054      	107.69491      	108.03404      	107.55926      	107.97069      	107.370285     	107.95602      	107.39823      	107.1338       	107.97924      	107.622345     	108.35228      	107.95476      	108.08033      	109.475624     	105.82637      	98.63555       	97.071815      	96.271194      	94.541565      	96.07416       	96.304955      	96.70707       	96.87461       	97.36462       	96.25613       	97.71293       	97.830376      	98.48082       	95.937996      	96.99397       	96.61264       	96.619156      	97.215416      	96.29828       	97.13102       	97.00483       	96.56145       	96.92256       	97.156204      	96.339485      	96.488716      	96.46483       	96.920685      	94.65457       	95.676636      	96.38104       	97.32173       	95.15219       	95.382935      	97.134384      	95.599945      	93.738304      	95.98748       	94.07712       	97.30458       	101.66337      	112.98445      	109.74122      	108.68259      	109.22394      	107.96804      	108.60925      	108.758934     	107.667534     	108.32743      	109.56042      	106.640205     	108.13918      	108.71671      	108.05857      	107.977394     	108.57045      	107.666985     	107.71291      	109.14341      	107.49858      	108.73491      	106.77921      	108.64061      	110.038666     	111.93567      	110.45162      	108.77017      	
94.28231       	94.76523       	95.24582       	94.93286       	94.995316      	93.64264       	94.52002       	96.3509        	104.62836      	109.82744      	109.23449      	109.0944       	107.45433      	107.0957       	107.89073      	107.99365      	108.374664     	107.8217       	107.39479      	108.03279      	106.11489      	107.12141      	108.57884      	106.66036      	108.04997      	106.56653      	107.27197      	106.114334     	108.51373      	106.04215      	108.4089       	106.75767      	101.54912      	98.42775       	97.80062       	93.96814       	95.11654       	95.654625      	96.61828       	95.80785       	96.43215       	96.53399       	96.8047        	96.840904      	96.31853       	97.29453       	96.990364      	96.799576      	96.59397       	96.68261       	97.452515      	95.41256       	95.22701       	96.48442       	96.91703       	96.11186       	96.490524      	96.24028       	95.702995      	94.73801       	97.1162        	95.57455       	98.01398       	101.23724      	98.72851       	98.613         	97.87959       	99.191895      	98.16957       	99.23659       	99.39324       	99.96904       	103.080986     	113.82515      	109.723045     	109.93758      	109.1232       	108.99999      	110.93074      	108.08769      	109.76684      	108.26197      	108.9574       	108.54671      	108.00982      	109.01284      	109.00336      	108.09233      	108.42912      	109.044556     	108.56436      	108.71718      	107.7074       	109.04227      	108.733025     	108.91788      	108.07151      	108.81468      	108.86221      	108.322495     	
93.8813        	94.5342        	96.10701       	96.47678       	94.67711       	94.3458        	96.19759       	96.73109       	100.46488      	110.279884     	110.52084      	108.782486     	109.26226      	107.1018       	109.35881      	108.21356      	107.60305      	108.30308      	107.60793      	107.55251      	108.208374     	109.04969      	108.682655     	108.18261      	107.42798      	108.82462      	108.20453      	106.887184     	107.356674     	108.36253      	107.983444     	108.90131      	104.84285      	97.13666       	96.73506       	95.14115       	94.12042       	94.52203       	95.611626      	97.336975      	95.64489       	96.17983       	97.62273       	98.35552       	96.793945      	97.01406       	96.07152       	97.24958       	97.192764      	96.27692       	97.42002       	96.177185      	95.4226        	96.396164      	96.16091       	97.32054       	96.383995      	95.86215       	97.701065      	97.332214      	98.551506      	96.58374       	99.05258       	100.82585      	100.335175     	99.89247       	99.5063        	100.688644     	103.772255     	102.043144     	102.337845     	105.16846      	109.15637      	112.557655     	109.39002      	108.81807      	108.765816     	108.55323      	108.883446     	107.84154      	107.28616      	108.59646      	107.41229      	108.42136      	107.721855     	107.76893      	107.65159      	108.19617      	108.08363      	108.10725      	107.95311      	109.06692      	108.5238       	106.80698      	107.33582      	107.58985      	107.65516      	107.59839      	107.47721      	109.05467      	
94.25131       	94.52372       	95.16192       	96.44137       	93.72226       	94.37967       	94.208664      	96.359375      	98.91151       	105.14823      	109.87082      	106.87972      	107.70026      	107.54287      	107.27249      	107.90168      	107.28939      	107.72629      	108.136604     	107.04347      	107.16819      	107.832535     	107.69139      	107.21273      	107.19075      	106.83209      	107.91556      	107.03137      	107.82903      	107.55758      	107.11818      	108.1317       	106.22757      	98.44098       	97.30413       	95.68204       	94.088974      	94.66711       	95.74602       	96.18685       	96.45197       	96.66313       	96.558815      	95.57053       	96.41306       	96.28228       	96.18256       	95.76597       	95.434296      	95.15892       	95.675934      	97.95922       	95.31317       	98.87827       	96.96672       	97.170456      	98.69316       	97.618546      	99.02728       	99.19734       	100.92157      	98.82134       	99.7325        	101.614975     	102.88011      	105.50766      	104.37002      	107.740974     	107.33533      	108.758965     	108.90651      	112.3113       	108.899605     	108.67096      	108.18839      	107.93972      	106.84649      	109.05193      	107.03471      	107.65912      	107.01637      	107.46833      	107.85498      	110.75458      	105.90571      	106.47471      	106.84705      	107.2142       	107.290245     	107.30245      	106.71732      	107.64433      	108.97236      	107.50101      	107.4115       	107.48947      	108.1995       	106.6664       	107.61376      	107.10886      	
94.80038       	94.49099       	95.01184       	95.382         	95.643036      	94.60268       	92.88081       	94.30992       	98.59632       	103.95716      	110.09945      	108.765724     	107.72431      	107.66839      	106.819954     	108.79797      	106.25172      	106.82575      	107.50643      	107.804825     	106.72027      	106.98318      	106.637825     	106.57681      	108.035194     	106.52773      	107.662        	107.5037       	106.944115     	107.763084     	107.418495     	109.12379      	107.03026      	100.36971      	97.359436      	96.066826      	94.215935      	94.36209       	94.72657       	95.518906      	95.13639       	96.57352       	95.82876       	96.01175       	95.9203        	95.737465      	96.7764        	96.18875       	97.334854      	96.434715      	99.09593       	98.37193       	96.8822        	99.671585      	98.588936      	100.18957      	99.6937        	100.45793      	101.1751       	101.14767      	104.60004      	104.20212      	105.183876     	105.511116     	107.95753      	111.81689      	112.69808      	106.828766     	107.82151      	106.38453      	107.40228      	107.632355     	106.773094     	107.46503      	106.84301      	107.2054       	107.8183       	108.24226      	106.67094      	106.5338       	106.06627      	107.14357      	108.53184      	105.20985      	107.32689      	107.20905      	106.71205      	107.65297      	106.42639      	106.97359      	107.89654      	107.052505     	107.75049      	107.06799      	106.82732      	105.56049      	107.23349      	107.405975     	107.33518      	107.31864      	
95.34808       	94.77957       	94.90303       	96.03175       	95.521706      	94.43786       	93.537544      	95.08197       	98.37199       	104.81147      	109.414604     	109.02416      	107.05396      	107.74338      	109.15312      	107.1426       	106.85539      	107.823425     	106.421646     	107.49379      	106.67338      	107.55112      	106.47191      	107.065506     	107.084206     	107.95818      	106.443726     	107.47401      	107.31399      	108.79164      	106.476006     	107.90035      	109.6577       	100.887794     	97.70367       	96.61741       	95.8493        	94.719025      	94.57891       	96.66691       	96.64188       	95.82376       	97.055176      	96.24206       	98.51466       	94.74934       	96.496826      	100.17931      	99.569626      	98.64663       	100.449615     	100.8272       	99.26313       	102.7942       	102.517136     	102.19626      	103.98008      	105.14291      	105.50886      	107.994446     	109.791275     	109.19624      	112.86496      	112.86086      	109.96086      	108.97739      	110.46311      	106.834595     	108.606735     	107.601074     	106.8811       	107.90801      	108.06498      	107.63157      	108.46856      	107.53969      	106.950455     	108.42681      	107.67671      	108.29928      	108.17873      	107.91148      	107.957985     	109.16596      	108.25184      	106.82403      	107.913025     	107.66572      	108.55924      	107.90005      	108.32297      	107.395836     	108.07226      	108.02921      	108.23512      	108.30979      	107.82732      	108.35496      	107.7136       	108.183        	
94.79375       	95.120964      	96.10226       	95.51464       	94.71017       	95.63119       	93.00856       	95.01361       	96.76583       	103.33846      	110.28092      	110.09925      	108.61646      	108.04949      	108.49446      	107.531876     	109.17907      	108.07342      	108.2701       	107.307434     	107.83218      	108.51703      	108.06771      	107.70211      	107.44219      	107.844696     	107.99697      	108.61226      	108.45187      	108.188705     	107.8779       	109.06363      	109.2824       	106.70164      	99.51306       	97.66487       	96.14354       	95.01356       	96.62412       	97.023926      	97.364044      	98.62944       	95.7896        	98.716835      	97.631615      	99.04218       	98.54715       	99.97162       	99.93597       	100.821266     	102.39478      	103.20187      	100.27945      	104.23627      	108.61901      	107.47509      	108.98379      	110.78998      	111.54541      	109.46438      	110.303215     	108.2829       	108.96225      	108.24861      	108.33354      	109.44651      	108.28531      	107.58936      	107.405396     	107.3495       	107.585846     	107.8505       	106.35765      	106.51146      	107.6277       	107.255005     	106.519775     	107.069046     	106.62632      	106.80762      	107.7926       	107.7483       	107.41582      	107.06033      	107.53758      	106.72473      	108.096176     	106.872765     	107.19568      	109.03584      	107.67882      	106.57031      	107.217155     	107.72586      	107.4374       	107.49285      	107.1484       	107.76753      	107.16627      	106.513855     	
94.643074      	94.50232       	94.71392       	95.63071       	95.85777       	94.78552       	93.743965      	93.70746       	95.08972       	100.17325      	108.85116      	110.08048      	108.07368      	107.74813      	107.57403      	111.93027      	109.19291      	108.83755      	108.03613      	107.27594      	107.466225     	108.19131      	109.68567      	108.45981      	108.351364     	107.44198      	107.99164      	109.193184     	107.09513      	107.1339       	107.807365     	107.98227      	108.02732      	108.028694     	98.99211       	99.52737       	99.318         	99.29944       	100.02373      	98.49768       	99.40131       	95.856224      	97.87541       	98.18492       	100.37768      	98.97548       	100.35396      	102.54545      	102.47312      	105.61207      	107.76144      	107.84504      	111.191895     	109.978485     	112.22018      	107.69109      	107.64311      	108.056786     	107.67359      	106.65365      	108.13964      	107.515045     	106.7175       	108.18123      	106.64965      	106.81459      	106.59334      	107.38388      	106.03783      	107.292786     	105.40354      	106.987816     	107.20523      	108.293686     	111.43222      	108.34499      	109.726776     	106.711105     	109.74395      	106.597984     	107.999374     	106.92172      	107.99474      	107.91268      	106.79836      	107.73051      	108.276665     	106.77527      	107.417366     	107.477844     	107.741035     	107.1218       	107.24695      	107.97443      	107.93555      	108.73407      	106.88412      	108.10466      	108.3172       	108.516815     	
95.107956      	95.645935      	95.69047       	95.48364       	94.71858       	94.37692       	93.75795       	94.76759       	96.217285      	99.00037       	106.49951      	111.713295     	106.64747      	106.73411      	108.2092       	107.31081      	106.06245      	107.293785     	107.53825      	107.48674      	106.09224      	107.11963      	107.63676      	107.31821      	107.71723      	107.56983      	107.192696     	106.54009      	106.86145      	106.79068      	108.27308      	107.92007      	106.918434     	109.55103      	107.694115     	106.63611      	102.17495      	100.2684       	101.24895      	100.98507      	100.00577      	101.28931      	98.99531       	105.943115     	104.0457       	106.27877      	105.558266     	106.72461      	108.98252      	112.85051      	109.94301      	108.47592      	109.04108      	108.19502      	107.12791      	109.7064       	106.584885     	106.16218      	107.34379      	106.47808      	106.82322      	107.54305      	105.87313      	106.964745     	107.35167      	106.37131      	106.95275      	106.20426      	107.2514       	107.09307      	106.53329      	106.624344     	106.5378       	107.95128      	108.09498      	104.53962      	106.11919      	110.12501      	106.89576      	107.651726     	107.97753      	107.81919      	105.86149      	108.257996     	107.242836     	106.72652      	107.748085     	106.659676     	107.87897      	108.932365     	107.6054       	107.09827      	107.90245      	107.2513       	107.38137      	109.181984     	105.99056      	108.38971      	107.86423      	106.98947      	
95.475426      	95.685295      	97.21588       	96.633125      	94.785065      	94.49888       	95.9654        	93.156876      	95.74733       	97.41865       	103.81883      	112.501305     	108.59741      	107.52822      	108.59322      	106.00298      	105.55165      	107.10647      	108.565056     	107.08265      	106.28777      	105.94318      	109.053154     	104.91022      	106.803024     	108.294106     	105.726845     	107.99847      	106.65333      	108.58709      	106.88684      	107.01423      	107.12839      	107.528465     	108.08963      	107.92841      	103.89169      	103.18518      	103.945        	104.91682      	105.887596     	106.94919      	107.1928       	109.097496     	109.782394     	111.89665      	111.031075     	109.57468      	108.579796     	109.06064      	108.058235     	109.26976      	107.11321      	111.020164     	105.889336     	108.066505     	108.13308      	107.75572      	108.204865     	107.82749      	107.86971      	106.56878      	107.4309       	107.83347      	107.19144      	107.32518      	107.56729      	107.10595      	107.252365     	106.940575     	107.541275     	108.834694     	105.83731      	107.37422      	107.94468      	107.98905      	106.91321      	107.26724      	108.125854     	107.26163      	108.138145     	107.13984      	106.89402      	107.79856      	108.22359      	108.72309      	107.224846     	106.13232      	108.375725     	108.83516      	107.08039      	108.493546     	107.98032      	107.77254      	106.930084     	108.23807      	106.06387      	107.912384     	108.11822      	108.0762       	
95.1821        	95.40754       	95.13122       	94.78308       	94.81392       	94.50855       	93.6476        	94.12912       	93.66338       	96.669174      	100.41881      	106.70839      	110.75104      	106.699196     	107.16169      	107.18095      	106.7649       	106.95644      	105.80814      	107.20369      	108.52035      	105.31736      	106.58395      	106.3803       	106.10687      	106.42104      	108.47392      	106.953766     	106.62341      	107.00903      	108.747986     	108.05635      	107.49419      	107.36461      	108.007225     	106.34286      	108.25293      	108.606606     	108.86749      	107.14982      	108.730225     	108.11322      	109.640976     	105.58536      	107.459816     	107.83777      	108.762375     	107.40982      	107.19886      	107.00219      	106.661064     	106.59297      	106.41937      	107.30323      	107.26656      	106.62954      	106.97615      	106.81821      	106.37445      	106.50541      	107.43864      	106.40076      	107.4173       	107.77748      	105.85176      	107.08789      	106.91724      	107.33375      	106.558464     	106.55871      	104.86016      	107.25221      	106.85265      	107.02012      	107.22026      	105.59808      	105.10653      	105.19174      	107.71764      	106.11861      	105.141624     	105.87456      	106.258644     	106.4106       	106.155334     	106.57405      	107.59034      	108.43312      	107.70952      	107.873024     	107.774956     	106.92929      	107.61078      	108.851875     	107.969444     	106.42949      	106.45093      	108.227234     	106.720474     	108.14082      	
94.54874       	94.17282       	94.603806      	94.76891       	94.43358       	93.94726       	94.00679       	93.460464      	94.51022       	96.83351       	98.781906      	106.15211      	110.34318      	106.807724     	107.77754      	106.63789      	106.49649      	107.48811      	105.92187      	107.2976       	107.32607      	107.750404     	107.58331      	108.680595     	106.996376     	107.1481       	107.40622      	107.87394      	106.96098      	107.75121      	106.912        	107.10359      	108.55502      	107.3422       	109.958015     	108.75885      	107.40903      	107.91105      	108.25195      	106.79921      	107.941414     	108.29003      	107.98136      	107.65259      	107.512085     	107.12538      	108.28787      	107.216545     	107.302925     	108.18306      	105.94336      	105.62871      	107.168884     	106.231766     	108.31325      	106.09353      	105.85974      	106.04152      	105.19637      	105.59636      	106.10148      	106.18369      	105.84424      	106.69541      	105.48068      	106.78582      	106.236046     	107.28094      	106.838356     	107.17438      	105.80106      	105.93432      	106.81145      	106.333466     	107.18409      	106.04921      	106.8961       	106.357704     	107.84647      	106.88822      	106.56789      	106.41657      	107.678764     	106.15124      	107.015144     	106.45127      	106.897995     	107.590675     	106.224335     	107.0611       	106.02178      	106.334816     	106.66298      	106.26794      	107.44352      	106.48347      	106.28669      	106.42275      	108.80519      	104.33854      	
95.27334       	95.451965      	95.09801       	95.45729       	95.02674       	94.697815      	93.99292       	93.08726       	93.225876      	96.96938       	96.92155       	104.72812      	110.45335      	107.19884      	107.33156      	106.95136      	108.078804     	107.515335     	107.76682      	107.66141      	107.602394     	107.51104      	108.578316     	107.06918      	107.27753      	106.896194     	107.80661      	107.542206     	107.55409      	106.913055     	108.330536     	106.34824      	107.64546      	107.94382      	108.86761      	106.93911      	107.988045     	108.42321      	108.22428      	107.577774     	106.94011      	107.34474      	106.9927       	107.50031      	107.21239      	106.94961      	107.40486      	106.57833      	106.87911      	106.54764      	107.9233       	106.54925      	106.95852      	107.482765     	106.624954     	106.2967       	106.059395     	106.77184      	108.1939       	105.98526      	106.45324      	107.070305     	106.41592      	106.80804      	106.39647      	106.762344     	107.55038      	106.62589      	106.635445     	106.65567      	105.799835     	106.47549      	107.12191      	105.8492       	107.21556      	106.646545     	107.294266     	108.439064     	106.87262      	107.024536     	106.70719      	107.15259      	107.1541       	106.61623      	106.63524      	106.72376      	107.10577      	106.813736     	106.43641      	107.01429      	107.356995     	106.91293      	106.85738      	108.47254      	108.104515     	107.70877      	107.03966      	106.844734     	107.29944      	106.76792      	
94.695656      	94.893875      	95.85952       	95.595726      	94.706276      	94.86542       	94.77323       	95.011536      	93.54469       	92.909546      	96.327995      	101.12528      	108.56247      	111.726746     	108.69395      	107.94721      	107.64095      	110.02403      	105.81871      	107.27618      	108.18405      	108.87916      	108.14437      	107.82609      	108.0451       	107.87893      	107.54031      	107.55756      	107.94689      	107.30903      	107.463425     	108.39791      	107.96484      	108.91968      	107.30803      	107.950035     	107.12497      	107.89197      	108.550354     	107.55945      	107.619835     	108.43644      	108.231224     	107.75655      	108.59432      	107.16625      	107.46306      	107.900856     	108.183975     	106.99124      	106.3206       	106.630554     	106.36622      	106.60144      	106.57601      	106.664085     	106.7201       	106.89072      	106.14518      	106.39448      	107.77714      	107.25548      	106.76049      	105.95776      	106.918785     	107.11182      	106.87522      	106.88971      	106.15803      	107.81913      	107.425095     	107.1076       	106.9392       	106.588875     	109.39864      	108.55891      	108.23967      	109.00962      	108.51416      	107.80336      	106.68891      	107.88378      	109.01616      	107.405624     	108.30688      	107.81598      	107.52142      	107.10729      	107.137886     	106.92106      	106.80132      	105.77713      	106.14202      	106.51824      	107.076546     	107.37562      	107.355385     	108.728966     	107.96038      	108.6083       	
94.06962       	94.45398       	95.34271       	96.66638       	97.24796       	97.76626       	99.16414       	98.287964      	98.39397       	96.52176       	96.61006       	101.310814     	106.08536      	112.56192      	109.81858      	109.72598      	108.59556      	108.56519      	109.306114     	107.815994     	108.00967      	107.36594      	107.71411      	107.536674     	107.538574     	107.53201      	107.06021      	107.32568      	106.95502      	106.620735     	106.491714     	106.93217      	106.74153      	106.6048       	106.92995      	106.77173      	107.02144      	106.95821      	106.93666      	106.9916       	106.22628      	106.861595     	107.2989       	106.96319      	106.31613      	106.169334     	107.072685     	106.41617      	106.8328       	106.85876      	106.159805     	106.52505      	106.85596      	106.61557      	106.25541      	106.653725     	106.91818      	106.023964     	106.773636     	105.94026      	106.406784     	106.39009      	106.60496      	107.38962      	106.27591      	106.58298      	106.55805      	106.857254     	106.4958       	106.22345      	107.078        	106.88315      	106.08242      	106.12036      	106.854675     	106.433235     	106.86084      	106.90159      	106.89602      	106.33296      	107.311745     	107.93229      	107.49621      	108.6116       	107.9532       	109.23601      	108.097206     	107.856415     	107.76601      	111.88017      	108.92809      	108.422935     	109.28166      	107.53745      	108.335976     	108.297646     	108.36601      	107.90917      	108.71871      	108.34694      	
96.54975       	95.24461       	96.098885      	98.23158       	99.04008       	98.703354      	99.830505      	100.40556      	98.46445       	99.23183       	100.19733      	102.85331      	107.519615     	111.02664      	109.14743      	109.35792      	109.14138      	108.449295     	107.733574     	107.94796      	107.4858       	107.19788      	108.52335      	107.329315     	107.72839      	107.879944     	107.587585     	107.88538      	109.044586     	109.23912      	107.37127      	106.89945      	107.17087      	108.1862       	108.187294     	107.47405      	107.303246     	107.48095      	107.65083      	106.47439      	106.95304      	106.86597      	107.575226     	107.43606      	107.648506     	106.92455      	107.194435     	107.87689      	107.08896      	106.195755     	107.257774     	106.80883      	106.50125      	106.53874      	107.41672      	107.2429       	108.911964     	107.30019      	107.326126     	107.245415     	106.90316      	107.43734      	107.18809      	107.26901      	106.37154      	107.127174     	106.65786      	106.578064     	106.426        	107.393394     	106.19938      	106.70233      	106.72448      	108.4441       	106.94046      	107.35294      	107.645905     	107.268745     	107.48752      	107.00524      	107.03958      	106.6912       	106.966934     	107.10294      	108.178604     	106.86079      	107.391594     	106.74689      	107.091156     	107.449615     	107.71828      	107.16069      	106.881645     	107.16977      	107.54402      	108.88612      	108.51418      	108.524506     	107.7379       	107.78146      	
97.58656       	97.13767       	97.87731       	97.53102       	99.31909       	100.65931      	100.1294       	100.4243       	101.40161      	103.81893      	103.962395     	103.33033      	110.8828       	108.749825     	108.44096      	108.37566      	107.7851       	108.37116      	107.42187      	108.47292      	108.08578      	107.98875      	107.75651      	107.577835     	108.11686      	108.02171      	107.69316      	107.57465      	107.60176      	107.587364     	108.68528      	107.84394      	107.685524     	108.648796     	107.3872       	108.07314      	107.73181      	108.0796       	107.613205     	107.68181      	107.57999      	107.37181      	107.24533      	107.16869      	107.7179       	108.03899      	107.30999      	106.777855     	108.638985     	107.36787      	107.134575     	107.72442      	107.71376      	106.63474      	107.97184      	107.215614     	107.14798      	107.22209      	107.35347      	107.486084     	107.74966      	106.74361      	107.498955     	107.95134      	106.80846      	107.43061      	106.47626      	106.718254     	107.50554      	107.267815     	107.43445      	107.193504     	106.19185      	108.66728      	106.574615     	107.380356     	108.15679      	107.567184     	106.235985     	107.40538      	107.06902      	107.039665     	107.48801      	107.42525      	107.05078      	107.58257      	107.25162      	106.65157      	107.56336      	107.051155     	107.97849      	106.673775     	108.17569      	107.08822      	107.837105     	108.273994     	106.56279      	107.80033      	108.116264     	107.628685     	
99.008934      	99.05881       	98.71726       	100.07776      	101.55832      	102.615486     	101.42534      	103.33706      	104.85622      	108.71877      	111.640755     	111.655914     	109.24213      	108.85056      	107.491455     	106.41876      	107.80402      	106.63793      	107.63431      	107.84528      	107.9158       	107.8701       	108.0865       	106.36993      	107.51556      	107.024506     	107.37311      	107.87129      	107.194176     	107.62952      	106.61538      	107.81458      	107.640564     	107.06185      	107.52846      	106.71438      	107.904594     	106.2896       	108.00571      	107.581856     	107.20956      	106.18165      	106.68502      	107.54003      	107.215904     	106.68439      	108.31657      	106.8587       	106.176956     	106.90783      	105.7407       	106.42208      	106.21009      	106.81552      	107.85018      	108.05452      	106.629196     	106.95725      	107.22392      	106.99179      	106.769005     	107.139565     	107.71706      	106.91139      	106.46646      	106.816505     	107.329704     	107.830025     	106.44786      	106.41562      	105.62046      	107.2737       	105.62483      	106.718475     	106.335976     	107.48024      	107.07086      	105.848465     	108.83258      	106.27869      	107.64601      	107.5617       	106.86483      	106.57385      	107.4351       	107.85458      	106.65552      	107.171974     	107.27265      	106.70203      	107.310646     	107.88255      	107.077934     	108.66893      	105.39042      	107.19046      	108.92346      	106.481        	107.04298      	107.27831      	
102.53709      	102.804794     	103.18797      	105.721016     	107.53919      	108.58456      	110.526764     	110.556984     	109.36793      	107.95572      	107.693634     	107.87221      	106.50174      	107.37857      	106.916725     	107.05694      	106.323395     	107.06735      	107.0569       	106.607155     	106.89352      	106.1956       	106.77427      	106.34787      	106.43006      	105.78995      	106.750755     	107.349884     	105.56218      	106.54934      	106.028854     	106.76218      	105.93237      	106.873116     	107.18594      	106.09527      	107.14427      	106.81685      	105.86761      	106.28591      	106.852135     	106.22986      	106.37955      	106.32732      	106.28668      	106.55999      	106.17573      	106.43065      	106.23146      	107.81422      	107.39024      	108.301094     	107.41261      	107.59873      	107.73825      	107.2838       	107.853134     	106.87201      	107.4353       	108.1869       	107.68235      	106.83651      	107.26958      	107.51143      	106.28084      	106.681046     	107.593216     	106.13053      	107.07296      	107.329285     	106.65007      	106.88437      	105.916824     	107.52589      	106.58788      	107.34349      	107.92553      	108.28958      	106.8965       	108.80202      	107.255005     	107.27579      	106.60049      	107.655334     	107.88753      	106.73823      	107.51019      	106.982834     	109.23118      	108.97974      	106.75828      	107.85892      	107.453545     	106.57301      	107.12239      	110.12947      	107.84204      	108.27055      	108.206505     	108.145615     	
107.18282      	108.62836      	108.88541      	112.058235     	110.70083      	110.46015      	109.62731      	109.14893      	109.104485     	108.872055     	108.21607      	108.17535      	108.58486      	107.13555      	108.45001      	106.667755     	107.26868      	107.66393      	108.063965     	108.07179      	108.26884      	106.84333      	106.613144     	107.67517      	107.78105      	107.37528      	107.01692      	107.0506       	107.18298      	107.196785     	107.2333       	106.92735      	106.664154     	106.82981      	107.21136      	106.68185      	107.863396     	106.67006      	106.74588      	107.33946      	106.71019      	106.71962      	106.30558      	106.51649      	106.96093      	106.42343      	106.51406      	106.72937      	106.483734     	106.712616     	106.70271      	106.74111      	105.91166      	106.62118      	107.48805      	107.70486      	106.102135     	106.47142      	106.44035      	105.7929       	106.71011      	106.28763      	106.63256      	106.663864     	106.343994     	106.41982      	106.780075     	106.61761      	106.1631       	106.3801       	106.33251      	106.65044      	106.72848      	108.991066     	109.74433      	108.33801      	108.449295     	108.72786      	107.89755      	107.00884      	106.82964      	106.93867      	107.187996     	106.973045     	106.517624     	107.0003       	106.32905      	106.786575     	106.62193      	106.73002      	106.09579      	107.08286      	106.60716      	106.904236     	106.21485      	106.524704     	106.885635     	105.83162      	107.1884       	107.38686      	
107.84818      	107.52844      	107.63686      	107.68081      	107.24475      	107.988266     	106.69712      	106.70517      	106.67498      	107.63978      	109.18851      	107.67913      	108.71672      	109.117226     	108.48328      	108.03566      	107.595375     	107.65371      	108.30415      	107.81468      	108.132576     	107.161        	109.63627      	107.714615     	108.088356     	107.419136     	107.73004      	108.58607      	107.74056      	109.063484     	107.17433      	109.666245     	108.21796      	108.7609       	108.38915      	107.320595     	107.85316      	109.73733      	107.28379      	107.57975      	108.84508      	109.00967      	107.20403      	107.419464     	108.76363      	108.38712      	108.196625     	108.047386     	107.74847      	108.4407       	107.576935     	107.65629      	108.52541      	108.155655     	107.82947      	108.385506     	108.40847      	110.40347      	108.67203      	109.31051      	107.62692      	107.9342       	107.76759      	107.61025      	108.45419      	107.386604     	107.3764       	107.89913      	108.059006     	107.021835     	108.019165     	109.49667      	113.17256      	110.191765     	108.13734      	108.65268      	107.82041      	109.05576      	108.97264      	108.05538      	109.16174      	107.63944      	108.23936      	108.4459       	108.3599       	108.33556      	107.66861      	109.25017      	107.52147      	108.71265      	107.40885      	108.74439      	107.98719      	107.49279      	108.9031       	107.43478      	107.916855     	107.70141      	108.09736      	109.28989      	
107.45066      	107.61825      	106.95999      	107.36533      	109.00606      	108.327705     	108.55267      	108.983185     	107.2057       	108.92123      	109.09199      	107.62786      	107.893845     	109.61329      	108.441765     	107.76663      	108.79296      	107.21318      	108.01301      	108.16043      	107.58376      	107.65257      	107.244156     	107.56775      	107.89268      	107.08566      	106.74262      	107.59062      	106.40654      	107.25542      	107.3315       	107.706764     	110.29319      	109.43562      	108.64165      	108.46713      	108.502815     	109.16144      	108.35119      	107.90169      	106.906136     	106.701706     	107.29594      	107.13923      	107.03406      	107.93349      	106.64259      	105.59873      	107.85841      	112.16815      	112.355965     	110.11743      	109.33515      	108.45041      	107.84212      	107.0844       	107.3487       	108.81621      	108.02692      	108.67881      	107.85623      	107.49865      	107.733154     	107.95597      	107.27339      	108.18529      	107.22253      	107.46489      	108.29046      	107.433235     	107.668655     	107.25217      	107.36228      	106.85205      	107.40638      	107.360435     	107.54697      	106.96126      	106.73215      	107.36382      	107.848145     	106.80092      	106.97592      	106.68088      	108.76216      	107.40849      	107.2921       	106.996475     	106.99913      	107.63619      	107.207504     	106.61875      	106.80731      	106.42403      	106.998604     	108.43174      	107.79818      	108.584236     	108.345345     	108.457        	
106.52474      	107.27427      	107.96362      	108.39969      	107.805046     	107.05746      	109.1685       	108.88677      	108.389        	108.00654      	108.675644     	108.75796      	108.514084     	108.96708      	108.595406     	108.21025      	110.06251      	107.04132      	109.17631      	107.61086      	107.94615      	109.656235     	107.855675     	107.2826       	107.36816      	108.49247      	107.74277      	108.183014     	109.23794      	108.45184      	108.22288      	107.78052      	108.44586      	107.98893      	107.26517      	108.193756     	107.69898      	108.38981      	108.530136     	108.67218      	108.56152      	107.12481      	107.08125      	107.856476     	108.47573      	106.9945       	108.527054     	108.32356      	106.01771      	107.55534      	111.55309      	108.70409      	108.27258      	108.89393      	109.18744      	107.59135      	108.67129      	107.95717      	108.15493      	108.209694     	108.653824     	108.368835     	108.41154      	108.2866       	107.671715     	108.31519      	108.53522      	108.67002      	108.317474     	108.371895     	108.22735      	107.57497      	108.079636     	107.70167      	108.34923      	107.65654      	107.71476      	110.21411      	107.98022      	107.54232      	108.653336     	108.09607      	108.48195      	108.60303      	108.47721      	108.78589      	108.39269      	109.929985     	109.11184      	108.335625     	108.04927      	108.468666     	108.156494     	108.68305      	109.19375      	108.27612      	108.43303      	107.22256      	106.12155      	107.27971      	
105.95293      	106.68542      	107.51881      	107.542595     	108.15275      	106.876144     	106.65237      	107.20861      	107.49996      	108.81935      	107.27404      	107.56085      	107.41098      	107.39994      	107.41067      	108.363205     	107.721504     	108.04782      	108.61926      	107.44593      	109.09292      	107.743904     	107.218605     	107.693        	107.90862      	107.53899      	107.02649      	107.89595      	107.70489      	107.78113      	107.061455     	107.434105     	107.33002      	107.27432      	107.286766     	107.575226     	106.841034     	108.11398      	106.80646      	106.88857      	107.50138      	107.2952       	107.216194     	107.6778       	106.76473      	107.06027      	107.143326     	107.57352      	107.16202      	107.27197      	107.43464      	107.41028      	107.2104       	106.91039      	107.48138      	106.9487       	108.13152      	107.12522      	108.57307      	106.60638      	107.981064     	106.33618      	106.75119      	107.51728      	107.0143       	107.69142      	107.22341      	107.43914      	107.29761      	107.78769      	107.05314      	107.292625     	106.551155     	107.09554      	106.774315     	106.83199      	107.16201      	106.86185      	107.31843      	108.50127      	107.027176     	107.72833      	108.09134      	106.88096      	108.50656      	106.530495     	107.517136     	106.723465     	107.91083      	108.43602      	107.18159      	107.72242      	108.288345     	107.30899      	106.84916      	106.56462      	107.32316      	107.349846     	107.069405     	107.1205       	
106.37281      	106.469124     	106.5682       	106.6252       	106.95029      	106.65172      	107.09697      	106.46029      	105.69555      	107.86134      	108.02205      	106.03873      	106.56177      	106.59636      	107.11021      	107.13672      	107.492516     	106.54784      	107.39743      	106.57909      	105.9265       	106.34945      	106.75457      	106.220276     	106.73908      	106.52672      	106.698524     	106.27991      	107.629524     	107.70721      	106.31191      	106.61601      	106.725204     	106.23107      	107.98772      	106.00622      	106.6322       	106.64598      	105.671745     	106.62599      	108.27434      	106.2811       	105.84499      	106.80621      	106.06488      	106.70373      	108.0313       	106.94028      	107.18244      	107.30037      	107.995384     	107.70294      	106.13644      	106.74754      	108.56425      	105.96583      	107.67062      	105.90629      	106.32928      	106.551994     	107.03481      	106.863014     	106.52265      	106.21218      	106.4176       	107.077866     	105.861176     	106.56801      	107.44223      	106.59738      	106.441956     	107.1297       	108.72152      	107.06626      	107.44686      	107.7776       	106.85953      	108.65424      	107.67098      	107.65462      	107.55628      	108.28908      	107.22767      	107.522255     	106.883865     	107.368034     	107.49477      	106.75448      	107.78983      	107.11795      	107.55714      	106.72399      	106.5688       	107.11326      	107.62377      	107.258286     	106.908295     	108.38797      	107.588        	107.77123      	
106.39312      	107.41011      	108.15318      	107.745026     	108.4949       	107.59969      	107.585815     	107.043755     	107.43304      	106.69888      	106.26288      	107.03066      	106.755905     	106.961006     	107.51987      	106.72467      	106.895164     	107.96605      	107.33913      	106.86782      	107.29117      	107.394485     	106.743484     	106.78143      	107.361115     	107.253334     	107.30198      	107.11727      	106.60655      	107.262146     	108.41419      	107.27935      	106.65634      	107.16301      	106.43137      	107.11084      	107.021416     	106.742935     	107.349625     	107.307915     	107.285835     	106.60036      	106.60054      	107.034355     	106.203        	107.68071      	106.95076      	106.33169      	107.12159      	106.85883      	106.64474      	107.189804     	106.081024     	106.396736     	106.99507      	108.85253      	108.66549      	108.79783      	106.86424      	108.298546     	108.25059      	108.304405     	108.11309      	107.26311      	108.1109       	108.217964     	107.686005     	108.1227       	107.36144      	107.909996     	106.958374     	107.69574      	107.94132      	107.404335     	106.69005      	108.50529      	106.21772      	109.9744       	106.953384     	107.63275      	108.182106     	108.04038      	107.408745     	108.20173      	107.854485     	108.31976      	109.49545      	106.81078      	108.664734     	109.34248      	107.44723      	107.69293      	107.950935     	108.57089      	106.48362      	107.5778       	109.25857      	107.30325      	107.12197      	108.224014     	
106.16074      	106.59872      	107.167        	107.06894      	106.32953      	106.676346     	106.65809      	106.51667      	106.33173      	106.817215     	107.23692      	105.90274      	106.89561      	107.154366     	107.21115      	106.69713      	107.26935      	107.06247      	106.61868      	107.5947       	107.173485     	106.961        	107.18186      	107.037895     	106.59025      	108.13001      	108.76793      	108.28092      	108.372154     	108.514626     	107.54906      	108.64259      	107.987        	107.541275     	109.10229      	107.179214     	107.90734      	107.8758       	107.42738      	108.900116     	107.542076     	108.176476     	108.54751      	107.638794     	108.10635      	107.89182      	107.42642      	107.89131      	107.88093      	107.89714      	107.79207      	107.67901      	107.22328      	107.44009      	108.341064     	107.01808      	108.26059      	108.4381       	107.084854     	108.373985     	107.81562      	107.36596      	107.02377      	107.65968      	107.045235     	107.11299      	108.31105      	107.929115     	107.60509      	107.22899      	107.03806      	107.90365      	107.74119      	107.780815     	106.860275     	108.10962      	106.947945     	109.38395      	108.34198      	108.44546      	106.87747      	107.9819       	107.450294     	107.61698      	105.72049      	107.28678      	107.01968      	106.21899      	108.24844      	108.525635     	106.58419      	107.81944      	111.97642      	109.587036     	108.76439      	108.55168      	108.358406     	108.89128      	107.93142      	109.88069      	
106.46845      	106.02822      	106.57692      	106.97482      	106.90925      	107.7072       	106.056465     	106.92763      	107.28076      	106.76453      	106.690315     	107.42724      	106.57705      	106.98268      	107.949326     	106.53197      	106.78855      	106.40144      	106.476494     	107.409134     	107.10276      	107.03398      	106.94145      	107.08645      	107.275955     	106.73072      	106.941864     	106.60204      	106.57453      	107.40104      	106.307976     	107.20079      	107.34277      	106.17718      	106.667305     	106.93486      	107.36551      	107.37435      	106.35704      	107.07094      	107.49035      	106.70016      	106.817276     	106.60205      	106.88567      	105.99145      	107.22159      	107.57042      	105.84664      	107.13112      	106.81352      	106.23502      	106.25209      	106.0965       	105.87691      	105.69125      	106.401596     	107.319664     	106.12645      	107.25198      	107.17802      	106.86068      	106.53159      	106.70776      	106.360275     	106.61606      	105.725075     	106.42393      	106.650314     	106.66699      	106.519806     	107.36938      	106.451775     	106.9133       	104.99734      	103.588196     	104.83596      	106.45121      	111.53038      	109.231705     	108.91541      	108.122536     	107.389206     	107.457436     	106.6528       	108.08719      	109.112015     	108.9129       	108.35446      	108.344406     	109.131836     	108.627        	109.04095      	107.88972      	108.79757      	108.47386      	108.53347      	108.56118      	108.182625     	108.628006     	
106.66506      	106.93619      	106.662025     	106.54948      	106.58072      	106.626205     	106.7002       	106.14559      	106.298904     	107.035675     	106.355576     	106.32057      	106.570305     	106.935356     	108.65184      	109.69528      	111.24379      	112.09316      	110.1552       	109.32909      	109.90866      	110.35898      	108.02162      	108.6155       	109.12286      	108.21111      	108.43294      	109.43437      	108.00399      	108.40386      	107.670265     	108.41142      	108.22307      	108.57         	110.79556      	107.84777      	107.81812      	107.248505     	108.56072      	108.81566      	107.003235     	108.05469      	107.830124     	107.672005     	109.057755     	106.6762       	108.14455      	107.79348      	108.97173      	107.7212       	107.42269      	107.96779      	107.70869      	106.916176     	108.139854     	107.337906     	108.031784     	107.88305      	107.75222      	108.5577       	108.06392      	107.33858      	107.22623      	107.97377      	107.06459      	107.92836      	107.5511       	106.88594      	103.12974      	104.49508      	101.67721      	99.13861       	96.86676       	94.56481       	94.08766       	94.096855      	95.40322       	96.04095       	100.23456      	110.67556      	108.16316      	109.98071      	108.06408      	109.650955     	108.66709      	108.08401      	107.843666     	107.906395     	108.52459      	108.94362      	109.04201      	108.118965     	108.113464     	109.77201      	106.83933      	108.66143      	111.56754      	107.65713      	108.18999      	109.01983      	
105.58477      	105.64196      	106.27568      	107.03907      	108.82662      	107.675735     	108.44472      	107.33285      	108.11843      	108.1894       	108.102806     	107.348434     	108.04693      	106.52577      	107.14315      	107.73525      	107.49744      	108.31831      	107.44326      	107.54302      	107.53596      	108.22242      	107.36473      	108.77943      	107.548416     	107.59412      	107.82628      	107.57206      	108.077484     	107.44294      	108.29454      	108.725494     	107.62145      	107.21775      	107.82615      	106.827675     	107.54803      	108.96287      	107.29422      	109.3441       	106.8724       	109.077866     	106.71093      	107.04638      	106.22836      	107.20101      	106.67306      	107.479454     	107.51283      	106.74884      	107.07055      	106.87706      	106.905754     	106.59322      	107.22718      	107.70066      	107.73189      	106.42323      	107.092476     	107.205734     	110.29218      	106.04149      	107.19825      	107.77349      	107.32581      	105.809265     	100.75162      	96.251785      	95.701965      	95.68383       	94.161446      	93.494804      	93.55437       	93.20334       	92.97524       	92.79388       	93.36379       	92.75724       	95.36712       	108.01687      	111.09853      	107.793365     	109.08497      	108.670456     	108.37006      	108.39441      	107.7841       	107.96051      	108.50465      	107.58968      	107.60045      	108.46791      	109.90025      	107.15951      	108.127464     	107.38684      	107.044914     	107.64306      	108.31021      	108.048836     	
107.176834     	107.31131      	107.292244     	107.468544     	107.79292      	107.040886     	106.48073      	107.208466     	106.60469      	106.29991      	106.85607      	106.47875      	108.19907      	108.524734     	108.48411      	109.06073      	109.63125      	108.67132      	108.33004      	108.896454     	110.88843      	107.34104      	109.28694      	109.026        	109.560135     	110.06969      	109.206505     	108.72772      	108.341156     	108.8684       	108.23286      	108.465515     	108.00028      	108.84175      	107.746796     	108.220985     	110.40825      	106.09046      	107.254555     	107.91363      	107.79263      	108.84211      	108.20826      	107.55839      	108.57294      	108.113846     	107.555374     	107.63329      	107.743904     	108.63684      	106.60174      	108.33887      	108.01443      	107.641266     	106.787796     	107.26564      	107.557915     	107.817314     	106.91283      	106.63483      	103.53522      	101.43067      	102.01018      	98.8148        	96.613884      	94.40573       	94.76682       	93.11605       	93.84864       	94.235016      	94.0717        	96.29149       	94.61249       	93.58079       	94.40916       	94.452065      	93.213135      	94.872894      	96.77932       	103.48943      	113.23171      	110.7654       	109.130035     	108.66871      	108.05413      	109.01743      	109.458954     	108.58932      	107.53559      	108.283875     	109.40683      	107.044235     	108.703865     	108.739716     	107.74934      	107.530396     	107.60752      	108.888725     	108.679306     	107.53726      	
105.07744      	105.67575      	106.73365      	106.50787      	105.39534      	106.21916      	106.24005      	105.643555     	107.3131       	108.416504     	107.50972      	108.31253      	107.04781      	106.77552      	107.9396       	107.67521      	109.51315      	107.858444     	107.87451      	107.83717      	108.093994     	107.272255     	107.79507      	107.451805     	108.22546      	106.98688      	107.808014     	110.021385     	105.742874     	107.306015     	107.54201      	108.15731      	106.9234       	108.76062      	107.50054      	109.984184     	108.059975     	107.24415      	107.59613      	108.64822      	107.2443       	108.48467      	109.23074      	107.21063      	108.93072      	107.63268      	106.89592      	106.66779      	108.38429      	107.48287      	106.26637      	107.39546      	108.51427      	107.121216     	109.579865     	105.58422      	103.00568      	99.228134      	97.19746       	97.9723        	95.601616      	94.9862        	94.240364      	93.862595      	93.287224      	94.34524       	96.80302       	94.41256       	94.22441       	95.235115      	94.966896      	94.96819       	94.58786       	95.20759       	94.30008       	93.64776       	94.05443       	93.005585      	94.784355      	100.525024     	109.18827      	112.81339      	109.71648      	109.79054      	109.01434      	108.55633      	108.428505     	108.25209      	108.35143      	109.175644     	113.572395     	111.937744     	110.2161       	109.82246      	109.24113      	108.89744      	109.621994     	107.84907      	108.24495      	108.889336     	
106.67432      	106.68828      	107.662        	108.39276      	106.23388      	107.36805      	106.73163      	106.52164      	106.74401      	106.382904     	105.699394     	106.16879      	105.69474      	106.08133      	106.305504     	107.43327      	106.570496     	106.37829      	106.6072       	106.10632      	106.67713      	106.41888      	106.81908      	106.120735     	107.672775     	106.399826     	106.097275     	106.372375     	106.5725       	106.91482      	106.06959      	106.68697      	107.088264     	106.622604     	106.52431      	106.50182      	106.074936     	106.572914     	106.35611      	106.57213      	106.54666      	106.546585     	106.474945     	105.88007      	105.48296      	106.16889      	106.29383      	105.47088      	105.693855     	106.34033      	106.30457      	106.29473      	103.37388      	98.59817       	96.663284      	95.31686       	94.470665      	93.30146       	91.8697        	92.074554      	92.46003       	92.55224       	92.31491       	92.57615       	93.18106       	92.96377       	92.29262       	92.9883        	93.3527        	93.09133       	94.90459       	95.11917       	94.8734        	94.14606       	94.89926       	94.55441       	93.40648       	93.32843       	95.78075       	98.711754      	102.01963      	109.88564      	106.46271      	107.40938      	106.228905     	106.33969      	105.63698      	106.97984      	105.12116      	105.65049      	105.84843      	106.16557      	106.290146     	106.19055      	106.34003      	106.04227      	105.79529      	105.882195     	106.95291      	107.56703      	
106.53457      	106.69801      	107.16045      	107.439224     	106.626854     	106.63049      	106.758766     	106.47725      	106.59181      	106.76241      	106.888275     	106.202545     	106.78254      	106.7063       	106.76784      	106.76593      	106.73618      	107.06279      	106.50738      	106.542336     	106.738525     	106.01516      	106.79542      	107.99124      	106.69731      	107.48305      	108.623764     	107.288124     	107.96262      	106.706764     	107.007484     	107.20921      	106.82168      	107.22115      	106.90131      	107.55913      	107.22199      	107.04829      	107.560326     	108.93827      	108.95573      	108.6777       	108.56444      	108.397316     	108.2551       	107.34064      	108.12424      	105.59584      	101.1149       	101.52193      	100.11422      	96.716255      	95.96732       	95.288956      	94.406425      	93.87875       	95.05119       	96.324394      	93.13207       	95.02409       	94.8165        	94.90862       	95.50729       	94.9442        	94.75249       	95.45357       	95.58899       	95.15517       	96.204025      	95.613045      	95.96132       	96.7376        	96.29312       	95.889824      	95.395195      	95.66522       	94.800865      	95.533806      	94.44708       	98.4525        	104.7193       	109.96627      	107.55192      	106.67474      	107.41362      	108.17538      	107.003586     	107.24338      	107.874596     	108.03986      	106.89703      	107.96841      	107.610954     	109.00103      	107.6886       	109.155        	108.46215      	106.64152      	108.24832      	106.79054      	
106.61062      	106.79979      	106.842155     	107.38046      	107.167465     	106.928696     	107.39372      	106.57978      	106.84426      	107.12073      	107.05268      	107.23151      	106.91091      	106.31325      	106.79941      	106.8249       	106.225945     	106.91842      	106.62648      	107.65778      	107.39308      	107.09794      	107.20327      	107.5033       	107.314995     	106.9936       	106.8507       	107.57187      	108.130295     	109.20099      	108.87352      	111.3528       	108.08643      	108.02445      	108.406364     	108.72924      	109.36089      	108.04762      	108.71173      	108.50461      	108.06274      	108.39558      	108.557945     	108.65842      	102.83572      	101.02574      	98.77561       	95.000786      	94.49701       	94.79578       	94.18033       	95.04214       	93.906         	94.11175       	93.77844       	94.79573       	94.06021       	93.71814       	94.642235      	96.02104       	95.65044       	96.18429       	95.868126      	96.27721       	95.899376      	95.56146       	96.5882        	96.09705       	95.6214        	96.79484       	95.8276        	96.759094      	97.28093       	100.4938       	97.40293       	95.66873       	94.502106      	93.98417       	95.09749       	97.25698       	104.62734      	110.3814       	109.68159      	108.75464      	107.56873      	110.132614     	107.385704     	108.4885       	108.68316      	107.93179      	108.06266      	109.80201      	108.06775      	108.69432      	108.10181      	108.971306     	108.014626     	109.210785     	107.91666      	108.519905     	
105.544106     	106.07913      	105.687515     	105.5522       	105.370804     	106.00907      	105.534386     	105.43465      	105.79892      	105.83629      	106.26397      	105.661        	106.09553      	106.37005      	106.849014     	106.3467       	106.783936     	105.40066      	106.186714     	106.77859      	106.93863      	106.86005      	106.714325     	106.40891      	105.73718      	106.394165     	106.527504     	108.200386     	107.35186      	108.50479      	107.77638      	107.58127      	108.764885     	112.28033      	110.05673      	109.151115     	109.34661      	108.4623       	108.15349      	107.54042      	109.61809      	108.21263      	103.942535     	96.82464       	93.82004       	93.39929       	93.81629       	93.42206       	94.07128       	93.82987       	93.90344       	94.34046       	93.76564       	94.78128       	93.63458       	94.0531        	94.83872       	94.9018        	95.62977       	94.95048       	95.27148       	95.47929       	95.73197       	96.29507       	94.85675       	95.81744       	96.05153       	95.772         	96.00331       	96.26948       	96.00263       	95.99438       	96.19348       	95.64168       	95.21344       	93.70551       	94.41715       	94.59189       	95.66066       	95.65983       	102.26821      	107.425285     	109.51136      	109.00088      	107.40133      	108.04902      	108.058556     	107.663345     	107.90527      	108.369576     	107.505554     	108.95794      	108.22119      	107.59932      	108.258484     	107.19289      	107.586235     	109.57925      	107.56708      	107.54101      	
105.47984      	105.803986     	106.37507      	106.69254      	106.440475     	106.931206     	105.97831      	105.91254      	106.25852      	105.86257      	106.385216     	105.52059      	106.68761      	107.16337      	108.67879      	109.10002      	108.97058      	108.404755     	108.34413      	109.951904     	108.26705      	108.64773      	111.77648      	112.28011      	110.11261      	109.184555     	107.98979      	108.61425      	108.0104       	107.475975     	108.12689      	107.95333      	107.80637      	107.10483      	107.92568      	107.541435     	108.46704      	107.883224     	108.11199      	107.49876      	107.19465      	105.1446       	96.97505       	94.02836       	92.31808       	91.840645      	93.05352       	94.3597        	94.70834       	94.96249       	94.28548       	95.41554       	95.43767       	94.915016      	94.866974      	95.76826       	95.50476       	95.14971       	95.75959       	95.63794       	96.55965       	96.01914       	96.10351       	96.32839       	96.631004      	96.65632       	97.16263       	96.757996      	97.17307       	96.87987       	96.708206      	96.88794       	96.373764      	98.59913       	96.20288       	95.06177       	96.34948       	94.03319       	93.444176      	95.46092       	102.721466     	106.52061      	110.843285     	108.0761       	108.61888      	108.205986     	107.758064     	107.872665     	108.08596      	107.77696      	106.70701      	108.04732      	107.16875      	107.9108       	109.124405     	108.8646       	108.20821      	108.543205     	108.05506      	107.41784      	
106.328026     	106.44811      	106.901        	107.013954     	107.19207      	107.31629      	106.853264     	106.68248      	107.80608      	108.740364     	108.54209      	108.95666      	108.34331      	108.879654     	109.83911      	110.83526      	108.34461      	108.4958       	108.7199       	109.17006      	109.67269      	106.2578       	108.37064      	113.47135      	111.106316     	110.48715      	109.197876     	109.11348      	108.89244      	108.549484     	108.69147      	108.57159      	108.04026      	108.08789      	107.443275     	108.177704     	108.95431      	108.61068      	108.75388      	108.5281       	108.13325      	103.11753      	97.03696       	96.03247       	93.8296        	93.20215       	93.97149       	94.248825      	95.944954      	95.242645      	97.403         	99.285835      	97.897705      	97.19996       	97.048805      	96.78875       	96.895386      	97.03398       	96.70887       	96.508415      	96.56494       	97.26165       	97.21692       	96.99029       	97.36088       	96.71373       	96.89153       	97.462456      	97.76238       	97.292465      	97.872955      	97.183205      	98.08181       	96.07954       	95.98424       	96.530655      	95.33269       	94.061264      	94.541         	95.64943       	98.44228       	105.980064     	111.82451      	108.504395     	108.06376      	108.48134      	108.46339      	107.713356     	109.243034     	107.19672      	109.46033      	110.05899      	107.195496     	107.9738       	107.67706      	107.0313       	107.50542      	107.41183      	108.954056     	108.11281      	
105.65955      	106.5066       	106.28064      	106.04171      	106.33397      	106.6455       	105.90766      	106.34615      	106.816605     	106.26302      	106.291885     	105.90091      	106.509636     	106.57728      	106.289986     	106.60546      	106.646416     	107.06877      	108.51759      	108.5895       	108.26192      	108.910484     	109.1015       	109.812325     	109.30561      	108.60969      	108.04315      	108.49328      	108.48649      	108.628586     	107.72007      	108.14873      	108.649345     	112.91181      	110.137535     	110.17392      	109.3349       	109.07792      	108.78919      	109.442535     	110.43941      	102.88502      	98.48261       	97.30154       	95.458244      	94.13583       	94.57871       	95.23605       	94.45507       	95.530685      	97.13371       	96.191025      	96.96455       	96.09711       	96.648186      	96.50828       	96.98533       	95.87097       	95.75825       	97.0542        	97.904205      	96.94504       	96.71867       	96.46556       	98.03036       	97.12394       	96.251274      	97.10698       	96.90747       	97.862274      	96.04986       	96.62819       	96.72019       	95.76187       	97.53025       	94.039116      	95.285965      	94.41725       	93.684944      	92.705635      	98.24151       	102.96692      	113.573074     	106.62875      	107.48371      	108.717575     	107.059975     	109.886894     	106.66453      	107.525894     	106.89388      	109.30724      	105.64641      	109.347404     	104.58079      	106.87053      	111.23493      	106.40242      	108.187225     	107.7697       	
105.55757      	106.06893      	105.985085     	105.49152      	106.22677      	106.38082      	105.68359      	105.65693      	107.49231      	105.79587      	106.007935     	108.146286     	108.15794      	107.96136      	107.846985     	109.619316     	107.90023      	109.449005     	107.80324      	108.071335     	108.74061      	109.30546      	108.30115      	108.03179      	108.48059      	110.15934      	106.694534     	108.24874      	107.61996      	106.868095     	107.446106     	107.99297      	107.674736     	109.05439      	107.05053      	108.457886     	107.86121      	107.1913       	107.68309      	108.16591      	108.17635      	108.3646       	99.44475       	97.16642       	95.465645      	94.09637       	95.1148        	94.408516      	95.016136      	95.82075       	95.6656        	95.85284       	95.85104       	96.40711       	96.50467       	98.09111       	96.9296        	97.298615      	97.56358       	95.92799       	98.26375       	99.791885      	97.5012        	97.505684      	96.66383       	97.19684       	97.10593       	98.81958       	96.9431        	96.62993       	98.25321       	100.35763      	99.042305      	98.13358       	97.099556      	96.67968       	95.570694      	95.50288       	93.85203       	93.38435       	94.43048       	100.41879      	109.43134      	112.4867       	109.75087      	109.16578      	107.550186     	107.9909       	107.53405      	107.11708      	107.89229      	107.83301      	107.317215     	109.060684     	106.74422      	107.014595     	107.94634      	107.68666      	107.366394     	107.018265     	
107.255905     	107.00053      	107.72608      	107.38455      	107.314476     	107.27106      	106.60186      	106.62973      	106.75015      	107.349014     	107.56897      	107.34645      	107.497604     	107.15684      	107.43518      	106.51469      	107.71253      	108.59988      	109.03658      	108.43691      	108.9456       	109.72338      	108.94748      	109.02673      	109.53622      	109.04048      	108.91099      	108.11007      	108.78527      	109.06074      	107.894035     	110.08657      	107.45074      	108.27317      	108.013664     	108.88434      	108.834274     	108.41161      	108.57875      	109.8512       	108.96194      	108.17916      	101.397385     	99.2118        	94.66794       	93.96347       	94.49139       	95.42697       	95.08398       	95.51224       	95.73322       	96.26364       	96.768135      	97.82965       	97.56715       	97.19195       	97.315926      	97.38495       	96.61722       	98.07657       	97.182076      	97.81976       	96.27856       	97.1731        	97.61466       	97.516884      	96.85097       	97.61914       	97.55913       	94.51288       	98.23062       	97.07267       	96.83441       	96.75595       	97.0097        	96.35255       	96.30465       	95.34888       	94.25953       	94.392166      	95.589325      	99.13251       	107.55603      	112.97827      	107.9472       	108.198265     	109.61909      	107.579025     	108.13606      	109.2635       	109.11762      	107.3703       	108.01951      	108.49558      	109.43573      	107.77641      	107.97692      	108.48829      	108.493324     	108.36547      	
106.8025       	106.86581      	107.55869      	107.71205      	106.41105      	107.47624      	106.76879      	106.71222      	107.20729      	106.48821      	106.53597      	107.57591      	108.06316      	107.013466     	101.19883      	101.94731      	104.76942      	105.54338      	109.469        	111.655716     	109.68507      	108.365845     	108.91239      	110.334145     	109.75068      	109.06265      	110.614365     	109.11617      	108.678665     	109.57436      	108.45417      	109.021255     	109.000885     	109.42202      	109.092514     	111.99853      	111.68433      	110.296394     	109.64608      	110.30367      	109.80969      	109.3575       	101.39054      	97.938416      	96.88797       	96.297066      	94.864075      	96.64389       	96.97359       	98.57116       	97.2577        	96.93238       	97.34759       	97.54829       	96.95405       	97.51955       	98.17541       	97.010254      	97.975815      	97.739105      	97.70822       	97.5696        	96.58233       	97.892944      	97.129074      	96.830666      	97.10945       	96.80256       	97.49144       	95.73893       	96.12933       	97.61809       	100.58161      	98.303116      	96.67333       	96.53314       	96.28857       	95.4928        	94.72992       	93.609764      	95.01476       	100.70801      	106.12843      	111.1083       	106.43033      	109.84376      	107.29794      	107.04746      	108.24626      	107.10838      	108.58834      	106.913864     	107.90198      	107.75631      	107.91934      	107.15985      	108.380035     	108.59139      	107.20639      	109.43349      	
