# www.neaspec.com
# Scan:	 	Whitelight Imaging
# Project:	 	20251007_PS
# Description:	 	
# Date:	 	10/07/2025 13:27:15
# Scanner Center Position (X, Y):	[µm]	49.99	50.01	 
# Rotation:	[°]	0	 	 
# Scan Area (X, Y, Z):	[µm]	5.000	5.000	0.000
# Pixel Area (X, Y, Z):	[px]	100	100	1
# Interferometer Center/Distance:	[µm]	548.096	0.000	 
# Averaging:	 	1	 	 
# Integration time:	[ms]	5	 	 
# Wavenumber Scaling:	 	1.000000	 	 
# Laser Source:	 	4.5-15 µm nano-FTIR laser
# Detector:	 	R
# Target Wavelength:	[µm]	7.502	 	 
# Demodulation Mode:	 	Fourier
# Tip Frequency:	[Hz]	241,340.500	 	 
# Tip Amplitude:	[mV]	45.700	 	 
# Tapping Amplitude:	[nm]	77.130	 	 
# Modulation Frequency:	[Hz]	0.000	 	 
# Modulation Amplitude:	[mV]	0.000	 	 
# Modulation Offset:	[mV]	0.000	 	 
# Setpoint:	[%]	79.75	 	 
# Regulator (P, I, D):	 	4.206850	8.625812	1.000000
# Tip Potential:	[mV]	0.000	 	 
# M1A Scaling:	[nm/V]	0.426	 	 
# M1A Cantilever Factor:	 	1,000	 	 
# Q-Factor:	 	487.4	 	 
# Version:	 	2.1.11536.0
1110.4221      	1110.4337      	1110.5034      	1110.488       	1110.4534      	1110.449       	1110.468       	1110.4927      	1110.4329      	1110.4534      	1110.4427      	1110.4954      	1110.3552      	1110.5         	1110.4626      	1110.4441      	1110.41        	1110.5281      	1110.7626      	1110.5367      	1110.5973      	1110.5066      	1110.4579      	1110.3391      	1110.4763      	1110.3292      	1110.4255      	1110.4435      	1110.4075      	1110.489       	1110.3993      	1110.5071      	1110.487       	1110.4757      	1110.5256      	1110.5232      	1110.4384      	1110.5233      	1110.4708      	1110.5028      	1110.5166      	1110.5178      	1110.5304      	1110.5383      	1110.4966      	1110.4298      	1110.5524      	1110.4441      	1110.4181      	1110.5009      	1110.3451      	1110.3536      	1110.5461      	1110.3462      	1110.5902      	1110.3545      	1110.344       	1110.2732      	1109.7986      	1110.3861      	1110.4087      	1110.3954      	1110.3876      	1110.379       	1110.3634      	1110.4056      	1110.3156      	1110.3937      	1110.3956      	1110.367       	1110.3862      	1110.3596      	1110.3646      	1110.3928      	1110.2996      	1110.354       	1110.4138      	1110.3718      	1110.3352      	1110.3885      	1110.4011      	1110.4055      	1110.4417      	1110.4275      	1110.377       	1110.4183      	1110.4375      	1110.4031      	1110.4373      	1110.439       	1110.5143      	1110.4524      	1110.5541      	1110.4237      	1110.5126      	1110.5251      	1110.51        	1110.6047      	1110.5671      	1110.5142      	
1110.6051      	1110.5664      	1110.5509      	1110.5927      	1110.6106      	1110.5679      	1110.5841      	1110.6268      	1110.6234      	1110.4921      	1110.634       	1110.524       	1110.5952      	1110.6046      	1110.5409      	1110.5652      	1110.5114      	1110.5983      	1110.8652      	1110.6399      	1110.6112      	1110.6053      	1110.555       	1110.4757      	1110.4111      	1110.5809      	1110.4662      	1110.5458      	1110.408       	1110.7126      	1110.5569      	1110.5641      	1110.5859      	1110.5505      	1110.5667      	1110.5316      	1110.615       	1110.5458      	1110.5126      	1110.5402      	1110.4126      	1110.5474      	1110.5706      	1110.4995      	1110.5374      	1110.5715      	1110.4451      	1110.4738      	1110.3767      	1110.5725      	1110.404       	1110.3536      	1110.4012      	1110.4592      	1110.412       	1110.2803      	1110.4236      	1110.4475      	1110.0753      	1110.6393      	1110.582       	1110.5226      	1110.4565      	1110.4792      	1110.4485      	1110.4406      	1110.4353      	1110.4463      	1110.4331      	1110.4192      	1110.4045      	1110.3793      	1110.4518      	1110.3762      	1110.4183      	1110.4005      	1110.397       	1110.4806      	1110.3728      	1110.4927      	1110.5052      	1110.4852      	1110.418       	1110.4556      	1110.4553      	1110.4918      	1110.4517      	1110.4607      	1110.483       	1110.4587      	1110.5372      	1110.457       	1110.6118      	1110.5294      	1110.3925      	1110.6201      	1110.572       	1110.6105      	1110.601       	1110.563       	
1110.5438      	1110.5272      	1110.5204      	1110.6057      	1110.5597      	1110.4913      	1110.6145      	1110.4359      	1110.6147      	1110.5245      	1110.4904      	1110.5024      	1110.485       	1110.5361      	1110.4396      	1110.495       	1110.4845      	1110.5431      	1110.8158      	1110.6473      	1110.5836      	1110.5406      	1110.4666      	1110.4644      	1110.4227      	1110.477       	1110.4979      	1110.4188      	1110.3651      	1110.5621      	1110.4247      	1110.453       	1110.4457      	1110.3944      	1110.4767      	1110.4751      	1110.4756      	1110.3046      	1110.4564      	1110.4319      	1110.4465      	1110.2921      	1110.3296      	1110.4169      	1110.3293      	1110.4258      	1110.3959      	1110.533       	1110.3248      	1110.3735      	1110.2888      	1110.2831      	1110.3967      	1110.3234      	1110.2753      	1110.2053      	1110.2668      	1110.158       	1110.3606      	1110.4442      	1110.3846      	1110.3702      	1110.3506      	1110.2916      	1110.3644      	1110.3204      	1110.3625      	1110.304       	1110.3191      	1110.2885      	1110.2715      	1110.2167      	1110.3357      	1110.2842      	1110.2394      	1110.3767      	1110.2302      	1110.2546      	1110.2599      	1110.214       	1110.2937      	1110.3241      	1110.2852      	1110.315       	1110.3188      	1110.3722      	1110.3558      	1110.3302      	1110.3188      	1110.2566      	1110.5511      	1110.3778      	1110.31        	1110.5446      	1110.4216      	1110.4493      	1110.4949      	1110.3582      	1110.4677      	1110.4149      	
1110.3738      	1110.3721      	1110.2749      	1110.3813      	1110.4777      	1110.354       	1110.1733      	1110.455       	1110.3123      	1110.398       	1110.2931      	1110.3295      	1110.3517      	1110.2896      	1110.3109      	1110.2762      	1110.3285      	1110.3231      	1110.533       	1110.5477      	1110.3497      	1110.3436      	1110.2456      	1110.2122      	1110.3435      	1110.2784      	1110.3289      	1110.2682      	1110.2273      	1110.3463      	1110.2574      	1110.3827      	1110.2825      	1110.3303      	1110.2786      	1110.3456      	1110.2117      	1110.3264      	1110.0525      	1110.3293      	1110.1141      	1110.3221      	1110.1687      	1110.2242      	1110.3452      	1110.2498      	1110.2327      	1110.2075      	1110.2393      	1110.2974      	1110.1486      	1110.1418      	1110.1299      	1110.1599      	1110.1897      	1110.0828      	1110.2665      	1110.3192      	1110.1638      	1110.2651      	1110.212       	1110.3464      	1110.2286      	1110.2346      	1110.1962      	1110.3063      	1110.2136      	1110.0208      	1110.286       	1110.2882      	1110.1665      	1110.2922      	1110.3068      	1110.1677      	1110.2228      	1110.2687      	1110.2625      	1110.1677      	1110.2921      	1110.2681      	1110.2566      	1110.2854      	1110.326       	1110.3281      	1110.2899      	1110.3225      	1110.3788      	1110.3481      	1110.3401      	1110.4425      	1110.3976      	1110.4165      	1110.3185      	1110.3323      	1110.4868      	1110.3253      	1110.531       	1110.4419      	1110.3893      	1110.4294      	
1110.3516      	1110.3778      	1110.2937      	1110.2517      	1110.3224      	1110.3667      	1110.3176      	1110.3197      	1110.3358      	1110.2885      	1110.3037      	1110.2921      	1110.33        	1110.2485      	1110.2769      	1110.1691      	1110.2579      	1110.2672      	1110.5089      	1110.5015      	1110.362       	1110.3418      	1110.2971      	1110.2484      	1110.3079      	1110.2703      	1110.2573      	1110.2886      	1110.2397      	1110.2368      	1110.2698      	1110.1929      	1110.2748      	1110.238       	1110.0692      	1110.2129      	1110.2668      	1109.9468      	1110.1389      	1110.1294      	1110.1349      	1110.1511      	1110.1128      	1110.0372      	1110.2183      	1110.187       	1110.144       	1110.0735      	1110.1398      	1110.055       	1110.1609      	1110.2648      	1110.116       	1110.2756      	1110.2036      	1110.0676      	1110.3596      	1110.2203      	1110.1842      	1110.2495      	1110.231       	1110.1456      	1110.1929      	1110.2125      	1110.196       	1110.186       	1110.1044      	1110.2372      	1110.1929      	1110.1956      	1110.2509      	1110.1522      	1110.2491      	1110.2329      	1110.2249      	1110.264       	1110.1946      	1110.2144      	1110.2644      	1110.2661      	1110.2101      	1110.2207      	1110.2938      	1110.2379      	1110.3636      	1110.2814      	1110.363       	1110.2683      	1110.3182      	1110.3433      	1110.3811      	1110.3413      	1110.3688      	1110.3524      	1110.452       	1110.3529      	1110.4384      	1110.3743      	1110.349       	1110.5333      	
1110.3757      	1110.3242      	1110.3387      	1110.3292      	1110.369       	1110.3248      	1110.3536      	1110.3467      	1110.2759      	1110.2859      	1110.3165      	1110.26        	1110.2885      	1110.2288      	1110.2952      	1110.1952      	1110.299       	1110.1913      	1110.4741      	1110.6261      	1110.422       	1110.3833      	1110.4108      	1110.2968      	1110.2827      	1110.2996      	1110.3011      	1110.2891      	1110.095       	1110.3411      	1110.4484      	1110.1931      	1110.1608      	1110.1982      	1110.3347      	1110.2439      	1110.3978      	1110.3853      	1110.1665      	1110.2681      	1110.2029      	1110.2767      	1110.1663      	1110.1384      	1110.1641      	1110.1962      	1110.2169      	1110.2188      	1110.3546      	1110.3605      	1110.2175      	1110.2773      	1110.2834      	1110.1849      	1110.2479      	1110.3823      	1110.3434      	1110.2557      	1110.241       	1110.3293      	1110.2434      	1110.2798      	1110.2765      	1110.2488      	1110.3234      	1110.2668      	1110.3378      	1110.2401      	1110.3412      	1110.3146      	1110.2942      	1110.3015      	1110.1372      	1110.2988      	1110.3717      	1110.2224      	1110.3293      	1110.2352      	1110.3         	1110.3295      	1110.32        	1110.3484      	1110.3633      	1110.3384      	1110.3701      	1110.3711      	1110.3167      	1110.4526      	1110.4431      	1110.2607      	1110.6251      	1110.3959      	1110.386       	1110.5125      	1110.5386      	1110.3743      	1110.6589      	1110.4974      	1110.4602      	1110.4354      	
1110.4327      	1110.4701      	1110.451       	1110.3601      	1110.3341      	1110.4521      	1110.4562      	1110.3478      	1110.3403      	1110.335       	1110.3529      	1110.3339      	1110.3344      	1110.2849      	1110.3561      	1110.3221      	1110.3904      	1110.3141      	1110.462       	1110.7119      	1110.5201      	1110.4493      	1110.4175      	1110.3964      	1110.3606      	1110.3264      	1110.4279      	1110.3021      	1110.2524      	1110.4312      	1110.3657      	1110.2012      	1110.3959      	1110.3586      	1110.3645      	1110.428       	1110.4344      	1110.3468      	1110.0627      	1110.287       	1110.2772      	1110.2146      	1110.4862      	1110.4686      	1110.36        	1110.389       	1110.447       	1110.3273      	1110.3885      	1110.3783      	1110.367       	1110.2739      	1110.417       	1110.3787      	1110.3148      	1110.4443      	1110.3097      	1110.3934      	1110.3376      	1110.3845      	1110.3599      	1110.3921      	1110.3749      	1110.3188      	1110.2969      	1110.4153      	1110.1913      	1110.5802      	1110.3221      	1110.3751      	1110.404       	1110.2626      	1110.4084      	1110.3308      	1110.2997      	1110.4348      	1110.4065      	1110.4487      	1110.4944      	1110.3257      	1110.3793      	1110.4435      	1110.3627      	1110.4282      	1110.4703      	1110.4843      	1110.4557      	1110.4628      	1110.5874      	1110.4545      	1110.467       	1110.6346      	1110.3239      	1110.5214      	1110.7252      	1110.5845      	1110.5065      	1110.6359      	1110.4939      	1110.6221      	
1110.5         	1110.4624      	1110.4214      	1110.4487      	1110.505       	1110.5417      	1110.4214      	1110.4358      	1110.4989      	1110.3654      	1110.4445      	1110.4005      	1110.453       	1110.447       	1110.3972      	1110.4161      	1110.406       	1110.315       	1110.4103      	1110.6587      	1110.5715      	1110.3793      	1110.5175      	1110.4902      	1110.4138      	1110.4996      	1110.4327      	1110.2609      	1110.477       	1110.3368      	1110.3842      	1110.3228      	1110.2859      	1110.3496      	1110.4136      	1110.1901      	1110.5396      	1110.3899      	1110.1499      	1110.551       	1110.4836      	1110.462       	1110.4858      	1110.4757      	1110.3986      	1110.4382      	1110.3992      	1110.4706      	1110.4163      	1110.4237      	1110.3894      	1110.454       	1110.3452      	1110.4895      	1110.4691      	1110.3638      	1110.424       	1110.4856      	1110.3843      	1110.4105      	1110.455       	1110.4694      	1110.3899      	1110.4962      	1110.5007      	1110.382       	1110.5505      	1110.4084      	1110.5044      	1110.4487      	1110.4685      	1110.5477      	1110.5049      	1110.531       	1110.4655      	1110.4996      	1110.4176      	1110.5184      	1110.4973      	1110.5         	1110.6056      	1110.493       	1110.6388      	1110.4813      	1110.4799      	1110.7561      	1110.6044      	1110.6372      	1110.632       	1110.6842      	1110.6235      	1110.5989      	1110.664       	1110.679       	1110.6853      	1110.6471      	1110.5729      	1110.7892      	1110.7366      	1110.6824      	
1110.5486      	1110.5306      	1110.538       	1110.6163      	1110.532       	1110.4998      	1110.4954      	1110.5247      	1110.49        	1110.4758      	1110.4847      	1110.4227      	1110.4891      	1110.4384      	1110.461       	1110.4423      	1110.38        	1110.435       	1110.3495      	1110.4272      	1110.5446      	1110.7372      	1110.5612      	1110.4484      	1110.4161      	1110.4989      	1110.3228      	1110.4019      	1110.4025      	1110.2894      	1110.3118      	1110.3433      	1110.4097      	1110.3016      	1110.4867      	1110.4009      	1110.5634      	1110.4196      	1110.3335      	1110.5281      	1110.3563      	1110.4651      	1110.3943      	1110.1993      	1110.535       	1110.3296      	1110.4731      	1110.3638      	1110.4073      	1110.4905      	1110.3237      	1110.5554      	1110.3485      	1110.5035      	1110.4109      	1110.4819      	1110.3973      	1110.5238      	1110.3983      	1110.4362      	1110.4155      	1110.3713      	1110.4465      	1110.4235      	1110.4612      	1110.3708      	1110.4175      	1110.4266      	1110.4183      	1110.4458      	1110.4062      	1110.364       	1110.3472      	1110.5557      	1110.3976      	1110.4338      	1110.4486      	1110.5193      	1110.4807      	1110.4355      	1110.5768      	1110.4877      	1110.5319      	1110.5787      	1110.5568      	1110.5137      	1110.6666      	1110.529       	1110.6478      	1110.5452      	1110.5725      	1110.6299      	1110.6361      	1110.6454      	1110.658       	1110.605       	1110.7051      	1110.495       	1110.7128      	1110.6848      	
1110.5271      	1110.5146      	1110.4698      	1110.2482      	1110.4243      	1110.5266      	1110.4386      	1110.4409      	1110.4297      	1110.3837      	1110.4337      	1110.2931      	1110.3334      	1110.4054      	1110.3046      	1110.3179      	1110.3054      	1110.3218      	1110.3748      	1110.1969      	1110.0978      	1110.5144      	1110.4812      	1110.3685      	1110.41        	1110.4934      	1110.3566      	1110.3501      	1110.3403      	1110.2357      	1110.4386      	1110.4578      	1110.4109      	1110.3162      	1110.4098      	1110.466       	1110.3142      	1110.4568      	1110.4442      	1110.2693      	1110.2341      	1110.5156      	1110.421       	1110.3751      	1110.3567      	1110.4258      	1110.4573      	1110.291       	1110.4403      	1110.3748      	1110.3395      	1110.3893      	1110.3191      	1110.4663      	1110.3907      	1110.3469      	1110.4348      	1110.4238      	1110.4507      	1110.4412      	1110.4265      	1110.4617      	1110.5087      	1110.4648      	1110.2394      	1110.5435      	1110.464       	1110.5265      	1110.4565      	1110.4897      	1110.4608      	1110.46        	1110.4231      	1110.4691      	1110.4718      	1110.4692      	1110.4294      	1110.3679      	1110.3271      	1110.6049      	1110.4376      	1110.5625      	1110.5187      	1110.5293      	1110.5314      	1110.4614      	1110.5848      	1110.5872      	1110.5604      	1110.6018      	1110.5585      	1110.5559      	1110.5461      	1110.5007      	1110.63        	1110.479       	1110.5592      	1110.5448      	1110.6477      	1110.6116      	
1110.37        	1110.3595      	1110.3654      	1110.2546      	1110.2688      	1110.2764      	1110.3574      	1110.3019      	1110.3794      	1110.3069      	1110.2391      	1110.2742      	1110.3608      	1110.2853      	1110.2961      	1110.2565      	1110.2721      	1110.2307      	1110.2025      	1110.3508      	1110.1716      	1110.2312      	1110.2997      	1110.4266      	1110.2316      	1110.2368      	1110.1896      	1110.4279      	1110.3481      	1110.3113      	1110.3523      	1110.2719      	1110.2623      	1110.3485      	1110.3296      	1110.307       	1110.3448      	1110.2083      	1110.4205      	1110.2042      	1110.266       	1110.2458      	1110.2843      	1110.314       	1110.27        	1110.3003      	1110.287       	1110.2839      	1110.2834      	1110.4482      	1110.2974      	1110.2413      	1110.3551      	1110.2767      	1110.2787      	1110.3323      	1110.3651      	1110.3397      	1110.2354      	1110.3546      	1110.2538      	1110.4417      	1110.3859      	1110.2749      	1110.3677      	1110.3556      	1110.3887      	1110.3104      	1110.3811      	1110.3508      	1110.304       	1110.3596      	1110.4108      	1110.3625      	1110.3466      	1110.3116      	1110.4049      	1110.4813      	1110.3312      	1110.4452      	1110.3302      	1110.4786      	1110.5392      	1110.3909      	1110.4731      	1110.4932      	1110.4874      	1110.5177      	1110.4618      	1110.578       	1110.4343      	1110.66        	1110.4786      	1110.5165      	1110.3651      	1110.396       	1110.3073      	1110.4512      	1110.5037      	1110.4845      	
1110.3029      	1110.2512      	1110.1616      	1110.1761      	1110.3606      	1110.2716      	1110.2288      	1110.2         	1110.2273      	1110.2379      	1110.247       	1110.2142      	1110.3066      	1110.1859      	1110.2476      	1110.2253      	1110.275       	1110.2548      	1110.2156      	1110.2539      	1110.2593      	1110.2756      	1110.1626      	1110.2877      	1110.279       	1110.3009      	1110.263       	1110.3171      	1110.2421      	1110.2233      	1110.2749      	1110.2848      	1110.3387      	1110.2997      	1110.2866      	1110.3606      	1110.2637      	1110.2407      	1110.241       	1110.3341      	1110.1818      	1110.2462      	1110.2913      	1110.3881      	1110.2628      	1110.2502      	1110.3         	1110.2963      	1110.3099      	1110.267       	1110.31        	1110.2566      	1110.3063      	1110.391       	1110.355       	1110.374       	1110.3088      	1110.2942      	1110.3667      	1110.3197      	1110.3448      	1110.3196      	1110.3741      	1110.3845      	1110.3522      	1110.3778      	1110.3563      	1110.352       	1110.4187      	1110.3204      	1110.4471      	1110.2504      	1110.4305      	1110.3827      	1110.4211      	1110.3741      	1110.3966      	1110.453       	1110.4386      	1110.3394      	1110.4661      	1110.4155      	1110.4318      	1110.5162      	1110.409       	1110.5206      	1110.4656      	1110.544       	1110.4752      	1110.5359      	1110.4951      	1110.5386      	1110.4183      	1110.5822      	1110.5067      	1110.3882      	1110.4375      	1110.5138      	1110.4562      	1110.4208      	
1110.2266      	1110.2402      	1110.1282      	1110.2195      	1110.2571      	1110.2351      	1110.214       	1110.2139      	1110.1         	1110.1156      	1110.2981      	1110.0845      	1110.1763      	1110.1423      	1110.2476      	1110.1483      	1110.0911      	1110.2167      	1110.1917      	1110.253       	1110.2168      	1110.2399      	1110.1965      	1110.1609      	1110.1565      	1110.2306      	1110.2572      	1110.1985      	1110.2245      	1110.2649      	1110.2708      	1110.2068      	1110.226       	1110.3018      	1110.2072      	1110.2332      	1110.313       	1110.1411      	1110.1759      	1110.2863      	1110.2988      	1110.2085      	1110.2075      	1110.3011      	1110.246       	1110.2847      	1110.2349      	1110.2045      	1110.3813      	1110.2996      	1110.2932      	1110.3273      	1110.25        	1110.3792      	1110.2894      	1110.3368      	1110.3538      	1110.0962      	1110.427       	1110.177       	1110.5063      	1110.4393      	1110.3359      	1110.4532      	1110.3245      	1110.3755      	1110.4325      	1110.3508      	1110.4242      	1110.3109      	1110.4868      	1110.3396      	1110.4146      	1110.4276      	1110.3982      	1110.442       	1110.4854      	1110.4536      	1110.4797      	1110.3616      	1110.4725      	1110.3826      	1110.4572      	1110.5404      	1110.4797      	1110.5513      	1110.428       	1110.4729      	1110.3926      	1110.6251      	1110.5432      	1110.5051      	1110.521       	1110.4902      	1110.5146      	1110.5425      	1110.4833      	1110.4822      	1110.4993      	1110.4484      	
1110.3373      	1110.2522      	1110.1438      	1110.278       	1110.339       	1110.1736      	1110.3173      	1110.2511      	1110.2175      	1110.2297      	1110.3396      	1110.289       	1110.2556      	1110.3127      	1110.2896      	1110.3116      	1110.3693      	1110.3273      	1110.3407      	1110.2656      	1110.3217      	1110.2444      	1110.3245      	1110.3071      	1110.4285      	1110.1215      	1110.3975      	1110.364       	1110.2772      	1110.464       	1110.2228      	1110.4325      	1110.3239      	1110.3401      	1110.3905      	1110.4001      	1110.2975      	1110.4042      	1110.3433      	1110.3512      	1110.3622      	1110.3116      	1110.3784      	1110.3394      	1110.3804      	1110.3779      	1110.3308      	1110.3323      	1110.3882      	1110.359       	1110.347       	1110.394       	1110.3315      	1110.4222      	1110.4589      	1110.3755      	1110.4545      	1110.4612      	1110.4347      	1110.4597      	1110.425       	1110.4187      	1110.4478      	1110.4327      	1110.4214      	1110.5194      	1110.4038      	1110.3954      	1110.4995      	1110.4478      	1110.4132      	1110.5116      	1110.462       	1110.3978      	1110.4867      	1110.4181      	1110.5112      	1110.5225      	1110.4985      	1110.597       	1110.5117      	1110.689       	1110.594       	1110.5962      	1110.5363      	1110.5417      	1110.6564      	1110.5066      	1110.679       	1110.6414      	1110.6737      	1110.5867      	1110.6763      	1110.7069      	1110.6144      	1110.539       	1110.7631      	1110.5935      	1110.6284      	1110.5287      	
1110.3589      	1110.2948      	1110.189       	1110.2661      	1110.3322      	1110.3071      	1110.2385      	1110.3285      	1110.3822      	1110.2953      	1110.4045      	1110.329       	1110.3118      	1110.3585      	1110.3386      	1110.3243      	1110.3296      	1110.2708      	1110.4404      	1110.4215      	1110.4042      	1110.4603      	1110.4016      	1110.4393      	1110.3639      	1110.3083      	1110.4841      	1110.3221      	1110.404       	1110.3853      	1110.3494      	1110.2681      	1110.4218      	1110.3806      	1110.273       	1110.2968      	1110.3787      	1110.3506      	1110.3331      	1110.3412      	1110.3954      	1110.3505      	1110.2617      	1110.3422      	1110.246       	1110.4104      	1110.3801      	1110.3618      	1110.354       	1110.4065      	1110.4017      	1110.3446      	1110.377       	1110.4509      	1110.3175      	1110.5115      	1110.4487      	1110.3403      	1110.4764      	1110.4049      	1110.4657      	1110.4302      	1110.4391      	1110.4587      	1110.5054      	1110.3622      	1110.628       	1110.464       	1110.3035      	1110.6257      	1110.5454      	1110.5017      	1110.5559      	1110.4728      	1110.6044      	1110.5323      	1110.5067      	1110.4813      	1110.5032      	1110.5781      	1110.545       	1110.627       	1110.5688      	1110.5887      	1110.4973      	1110.7161      	1110.5157      	1110.6672      	1110.5076      	1110.6868      	1110.6582      	1110.5767      	1110.6254      	1110.5665      	1110.5258      	1110.5588      	1110.6628      	1110.5812      	1110.6218      	1110.5704      	
1110.4182      	1110.3923      	1110.3608      	1110.429       	1110.447       	1110.4081      	1110.3134      	1110.445       	1110.2368      	1110.4999      	1110.4785      	1110.4264      	1110.4247      	1110.4496      	1110.4152      	1110.4241      	1110.4419      	1110.4318      	1110.481       	1110.4607      	1110.4563      	1110.4816      	1110.4421      	1110.4849      	1110.5023      	1110.481       	1110.513       	1110.4897      	1110.5167      	1110.5205      	1110.4889      	1110.5259      	1110.5183      	1110.4458      	1110.5604      	1110.488       	1110.559       	1110.5348      	1110.5118      	1110.5419      	1110.505       	1110.5258      	1110.487       	1110.5458      	1110.5103      	1110.5265      	1110.5323      	1110.5369      	1110.5448      	1110.5913      	1110.5038      	1110.5986      	1110.5712      	1110.59        	1110.6277      	1110.6613      	1110.6472      	1110.5427      	1110.6183      	1110.6407      	1110.579       	1110.5085      	1110.7771      	1110.6555      	1110.6036      	1110.5267      	1110.6368      	1110.5829      	1110.6982      	1110.6177      	1110.6617      	1110.6151      	1110.6388      	1110.5304      	1110.6849      	1110.4719      	1110.796       	1110.7189      	1110.6655      	1110.5818      	1110.7849      	1110.7017      	1110.7192      	1110.616       	1110.7301      	1110.8046      	1110.7811      	1110.7454      	1110.7189      	1110.8298      	1110.7614      	1110.7395      	1110.7126      	1110.7158      	1110.7434      	1110.7117      	1110.7546      	1110.6665      	1110.7224      	1110.7788      	
1110.726       	1110.646       	1110.6362      	1110.7179      	1110.6942      	1110.6699      	1110.5358      	1110.678       	1110.6941      	1110.6544      	1110.645       	1110.6835      	1110.6776      	1110.7474      	1110.7723      	1110.6946      	1110.6359      	1110.739       	1110.584       	1110.7072      	1110.594       	1110.7384      	1110.6886      	1110.6924      	1110.6637      	1110.7134      	1110.6667      	1110.6245      	1110.7196      	1110.6636      	1110.6929      	1110.7153      	1110.6956      	1110.6824      	1110.6771      	1110.6355      	1110.735       	1110.649       	1110.676       	1110.7635      	1110.7286      	1110.6548      	1110.762       	1110.7069      	1110.7186      	1110.7557      	1110.6986      	1110.7089      	1110.7628      	1110.6913      	1110.8215      	1110.7542      	1110.7587      	1110.8292      	1110.8099      	1110.7084      	1110.8662      	1110.802       	1110.7666      	1110.865       	1110.724       	1110.869       	1110.7397      	1110.8599      	1110.8558      	1110.8517      	1110.8448      	1110.8407      	1110.7917      	1110.8501      	1110.8014      	1110.8386      	1110.9174      	1110.8738      	1110.8491      	1110.9225      	1110.9426      	1110.8656      	1110.9429      	1110.9592      	1110.8743      	1110.9835      	1110.8242      	1110.9231      	1111.0975      	1110.9587      	1110.9464      	1110.9816      	1111.0148      	1110.9602      	1110.9626      	1110.9012      	1110.9388      	1110.9498      	1110.878       	1110.9629      	1110.9701      	1110.9178      	1110.959       	1110.9016      	
1110.848       	1110.8212      	1110.7863      	1110.814       	1110.8281      	1110.7999      	1110.7988      	1110.871       	1110.8539      	1110.83        	1110.8146      	1110.8973      	1110.7991      	1110.8804      	1110.7609      	1110.9458      	1110.8768      	1110.9067      	1110.8237      	1110.9774      	1110.8455      	1110.9025      	1110.884       	1110.9501      	1110.8892      	1111.0336      	1110.8254      	1111.0151      	1110.9071      	1110.9637      	1110.9412      	1110.9467      	1110.8987      	1110.9507      	1110.9568      	1110.9382      	1110.9415      	1110.9185      	1110.8794      	1110.9408      	1110.9004      	1110.9309      	1110.9293      	1110.9973      	1110.9479      	1110.8972      	1111.0216      	1110.8667      	1111.0448      	1110.9485      	1111.0065      	1111.0421      	1111.0261      	1111.0493      	1111.0011      	1111.065       	1111.0259      	1111.119       	1110.9512      	1111.0468      	1111.1472      	1111.0642      	1111.0282      	1111.124       	1111.0142      	1111.0935      	1111.1897      	1111.0818      	1111.1602      	1111.1216      	1111.1353      	1111.0741      	1111.1155      	1111.0958      	1111.1056      	1111.0237      	1111.3281      	1111.1532      	1111.1859      	1111.1833      	1111.1705      	1111.2708      	1111.1249      	1111.1642      	1111.2031      	1111.1841      	1111.2834      	1111.0956      	1111.2393      	1111.3239      	1111.1837      	1111.0996      	1111.2327      	1111.1174      	1111.0441      	1111.219       	1111.1049      	1111.1321      	1111.0566      	1111.1296      	
1111.005       	1110.9597      	1110.9789      	1110.9781      	1111.0321      	1111.0057      	1110.9891      	1111.0099      	1111.0122      	1111.0084      	1111.0879      	1111.0085      	1111.0089      	1111.0292      	1111.0306      	1111.0323      	1111.0433      	1111.0083      	1111.0995      	1111.0714      	1111.0392      	1111.0688      	1111.0033      	1111.1218      	1111.0369      	1111.0527      	1111.1399      	1111.029       	1111.0117      	1111.086       	1110.9972      	1111.0654      	1111.0791      	1111.0815      	1111.0707      	1111.0946      	1111.0968      	1111.1577      	1111.0739      	1111.0663      	1111.112       	1111.0935      	1111.0774      	1111.0784      	1111.079       	1111.0958      	1111.0688      	1111.1218      	1111.0693      	1111.1724      	1111.0737      	1111.1096      	1111.2167      	1111.1844      	1111.1532      	1111.1793      	1111.1646      	1111.2102      	1111.1056      	1111.1694      	1111.1732      	1111.1017      	1111.1887      	1111.1229      	1111.2039      	1111.111       	1111.1555      	1111.1287      	1111.1649      	1111.196       	1111.1847      	1111.1652      	1111.1698      	1111.1736      	1111.16        	1111.167       	1111.2567      	1111.1501      	1111.2415      	1111.2081      	1111.2456      	1111.2173      	1111.2795      	1111.1874      	1111.259       	1111.0884      	1111.3176      	1111.2794      	1111.2476      	1111.2488      	1111.2849      	1111.1938      	1111.2421      	1111.1512      	1111.1826      	1111.171       	1111.3008      	1111.2177      	1111.2958      	1111.1956      	
1111.0487      	1111.0381      	1111.0367      	1111.0072      	1111.004       	1111.0743      	1111.0145      	1111.1173      	1111.0721      	1111.0112      	1111.1692      	1111.076       	1111.0837      	1111.0106      	1111.177       	1111.1298      	1111.1809      	1111.1204      	1111.1589      	1111.2039      	1111.1174      	1111.216       	1111.1641      	1111.1522      	1111.1722      	1111.0884      	1111.1571      	1111.205       	1111.114       	1111.1348      	1111.102       	1111.1342      	1111.2026      	1111.065       	1111.2162      	1111.1626      	1111.0896      	1111.1747      	1111.1881      	1111.1799      	1111.1746      	1111.1616      	1111.1816      	1111.159       	1111.1954      	1111.2026      	1111.2073      	1111.2422      	1111.2267      	1111.2294      	1111.2794      	1111.2847      	1111.259       	1111.3376      	1111.3113      	1111.313       	1111.2714      	1111.2789      	1111.2937      	1111.3715      	1111.1626      	1111.3484      	1111.2925      	1111.1769      	1111.4275      	1111.2577      	1111.2546      	1111.3215      	1111.3684      	1111.3185      	1111.327       	1111.3137      	1111.3291      	1111.3798      	1111.3181      	1111.4166      	1111.3429      	1111.3368      	1111.4265      	1111.3713      	1111.3726      	1111.4393      	1111.431       	1111.3407      	1111.4465      	1111.3655      	1111.3446      	1111.4602      	1111.3745      	1111.3994      	1111.3907      	1111.4791      	1111.5797      	1111.5431      	1111.3778      	1111.3339      	1111.2869      	1111.339       	1111.3159      	1111.3264      	
1111.2351      	1111.185       	1111.1558      	1111.2898      	1111.1808      	1111.288       	1111.1816      	1111.2932      	1111.2352      	1111.3433      	1111.2964      	1111.2915      	1111.3845      	1111.2301      	1111.3436      	1111.387       	1111.3196      	1111.3104      	1111.3777      	1111.4         	1111.4058      	1111.3699      	1111.4015      	1111.4177      	1111.4052      	1111.3811      	1111.3352      	1111.4365      	1111.3469      	1111.3461      	1111.387       	1111.3138      	1111.383       	1111.3306      	1111.3583      	1111.4143      	1111.3964      	1111.3588      	1111.4181      	1111.4534      	1111.3866      	1111.3927      	1111.3988      	1111.4302      	1111.4545      	1111.4028      	1111.4067      	1111.4562      	1111.4562      	1111.4734      	1111.3884      	1111.4657      	1111.507       	1111.49        	1111.511       	1111.4698      	1111.4838      	1111.4165      	1111.5327      	1111.5568      	1111.4436      	1111.4194      	1111.5404      	1111.4353      	1111.49        	1111.4269      	1111.4409      	1111.4636      	1111.5033      	1111.3954      	1111.5106      	1111.4572      	1111.5034      	1111.4916      	1111.5505      	1111.4666      	1111.5001      	1111.4946      	1111.5295      	1111.5923      	1111.5706      	1111.5308      	1111.5645      	1111.5712      	1111.5492      	1111.5193      	1111.5978      	1111.512       	1111.5231      	1111.8286      	1111.6665      	1111.5148      	1111.4481      	1111.5237      	1111.4315      	1111.4595      	1111.4392      	1111.4412      	1111.4492      	1111.4259      	
1111.3602      	1111.2993      	1111.2864      	1111.3394      	1111.2814      	1111.2765      	1111.418       	1111.3127      	1111.3966      	1111.3564      	1111.3639      	1111.3435      	1111.411       	1111.3992      	1111.372       	1111.4043      	1111.4493      	1111.4445      	1111.3651      	1111.4033      	1111.4071      	1111.4783      	1111.3904      	1111.3862      	1111.4839      	1111.4093      	1111.4438      	1111.413       	1111.4175      	1111.3665      	1111.4473      	1111.3357      	1111.3171      	1111.5403      	1111.3292      	1111.517       	1111.4338      	1111.427       	1111.4377      	1111.4642      	1111.4855      	1111.4728      	1111.4683      	1111.4124      	1111.4609      	1111.4285      	1111.473       	1111.4003      	1111.3765      	1111.5737      	1111.4896      	1111.4973      	1111.5187      	1111.4581      	1111.4741      	1111.4783      	1111.5123      	1111.5317      	1111.497       	1111.5369      	1111.528       	1111.4446      	1111.4712      	1111.4592      	1111.5002      	1111.3789      	1111.5605      	1111.4592      	1111.4355      	1111.4861      	1111.401       	1111.569       	1111.462       	1111.6232      	1111.4343      	1111.5918      	1111.5286      	1111.5778      	1111.4409      	1111.5751      	1111.5565      	1111.5074      	1111.5576      	1111.5907      	1111.5746      	1111.4806      	1111.4504      	1111.8602      	1111.7847      	1111.6803      	1111.5082      	1111.4216      	1111.4679      	1111.4133      	1111.4514      	1111.3973      	1111.3787      	1111.2         	1111.3923      	1111.3647      	
1111.2828      	1111.2452      	1111.2151      	1111.2649      	1111.3192      	1111.252       	1111.2832      	1111.3123      	1111.3322      	1111.2966      	1111.2888      	1111.2872      	1111.3131      	1111.3607      	1111.4421      	1111.3778      	1111.433       	1111.4259      	1111.3739      	1111.3885      	1111.47        	1111.421       	1111.4022      	1111.3685      	1111.3971      	1111.3303      	1111.4098      	1111.2756      	1111.4633      	1111.329       	1111.3118      	1111.467       	1111.3752      	1111.4325      	1111.4021      	1111.3722      	1111.4589      	1111.3809      	1111.4109      	1111.4714      	1111.4575      	1111.4436      	1111.4331      	1111.4456      	1111.4597      	1111.5138      	1111.4672      	1111.5514      	1111.4523      	1111.3372      	1111.5927      	1111.4425      	1111.4076      	1111.5675      	1111.4048      	1111.4702      	1111.4982      	1111.5294      	1111.4686      	1111.5698      	1111.4905      	1111.4207      	1111.5769      	1111.4692      	1111.4921      	1111.4923      	1111.4271      	1111.5624      	1111.4725      	1111.4839      	1111.4673      	1111.5608      	1111.4409      	1111.501       	1111.5493      	1111.5837      	1111.4879      	1111.5825      	1111.5277      	1111.4811      	1111.5416      	1111.5355      	1111.4861      	1111.4061      	1111.6016      	1111.5616      	1111.4279      	1111.9009      	1111.64        	1111.5597      	1111.456       	1111.3893      	1111.4348      	1111.4031      	1111.3732      	1111.3407      	1111.3958      	1111.246       	1111.3765      	1111.397       	
1111.55        	1111.5167      	1111.4642      	1111.5704      	1111.5216      	1111.5293      	1111.5005      	1111.486       	1111.5454      	1111.5363      	1111.5448      	1111.5833      	1111.5647      	1111.552       	1111.5581      	1111.579       	1111.5895      	1111.5903      	1111.5966      	1111.6194      	1111.6395      	1111.5936      	1111.6385      	1111.6318      	1111.6033      	1111.5939      	1111.6447      	1111.5956      	1111.69        	1111.5884      	1111.5262      	1111.6284      	1111.5493      	1111.5562      	1111.6129      	1111.66        	1111.6251      	1111.6141      	1111.5247      	1111.4683      	1111.8036      	1111.7166      	1111.6948      	1111.6743      	1111.7257      	1111.6132      	1111.7244      	1111.6869      	1111.7244      	1111.6902      	1111.7279      	1111.7274      	1111.6792      	1111.6934      	1111.7086      	1111.7218      	1111.7205      	1111.6809      	1111.7605      	1111.6509      	1111.7238      	1111.7764      	1111.7416      	1111.7103      	1111.6688      	1111.7512      	1111.6581      	1111.5974      	1111.8539      	1111.772       	1111.7128      	1111.6903      	1111.6963      	1111.8494      	1111.6853      	1111.7546      	1111.7922      	1111.7913      	1111.7909      	1111.7786      	1111.841       	1111.6902      	1111.7715      	1111.7527      	1111.7281      	1111.8245      	1111.7892      	1112.078       	1111.8634      	1111.8204      	1111.7501      	1111.6334      	1111.5509      	1111.536       	1111.6853      	1111.5966      	1111.6725      	1111.509       	1111.5214      	1111.6975      	
1111.655       	1111.6079      	1111.6165      	1111.6393      	1111.6395      	1111.6531      	1111.7317      	1111.6388      	1111.6467      	1111.6962      	1111.7424      	1111.702       	1111.6132      	1111.7579      	1111.6321      	1111.767       	1111.6555      	1111.7565      	1111.8066      	1111.6522      	1111.717       	1111.7745      	1111.663       	1111.6345      	1111.7493      	1111.6796      	1111.5057      	1111.8118      	1111.7899      	1111.73        	1111.7567      	1111.7664      	1111.722       	1111.7344      	1111.6798      	1111.7476      	1111.7644      	1111.8147      	1111.6754      	1111.6847      	1111.8313      	1111.7833      	1111.8029      	1111.6978      	1111.7161      	1111.811       	1111.707       	1111.7887      	1111.8156      	1111.717       	1111.7708      	1111.7701      	1111.7856      	1111.7831      	1111.7356      	1111.8798      	1111.7775      	1111.8035      	1111.8153      	1111.8026      	1111.7638      	1111.8137      	1111.6992      	1111.7943      	1111.8258      	1111.7186      	1111.7039      	1111.7743      	1111.7683      	1111.725       	1111.7971      	1111.7002      	1111.7767      	1111.8198      	1111.7731      	1111.7748      	1111.7925      	1111.779       	1111.6368      	1111.9408      	1111.8617      	1111.7537      	1111.8112      	1111.7633      	1111.7847      	1111.7561      	1111.7753      	1112.1174      	1111.836       	1111.7987      	1111.8108      	1111.6766      	1111.6931      	1111.6646      	1111.6283      	1111.6411      	1111.6044      	1111.6544      	1111.5496      	1111.6583      	
1111.5347      	1111.4768      	1111.5085      	1111.54        	1111.5284      	1111.5266      	1111.5366      	1111.5504      	1111.5607      	1111.5975      	1111.6152      	1111.601       	1111.5637      	1111.5956      	1111.6102      	1111.6199      	1111.5939      	1111.6622      	1111.6271      	1111.6494      	1111.6017      	1111.671       	1111.5862      	1111.5934      	1111.6154      	1111.5603      	1111.6571      	1111.571       	1111.5652      	1111.6031      	1111.6405      	1111.576       	1111.5925      	1111.594       	1111.5623      	1111.6608      	1111.5946      	1111.5724      	1111.7563      	1111.6482      	1111.6613      	1111.6404      	1111.6548      	1111.6467      	1111.7313      	1111.5891      	1111.6525      	1111.7339      	1111.6267      	1111.7375      	1111.6519      	1111.7177      	1111.6476      	1111.742       	1111.7141      	1111.7622      	1111.6112      	1111.669       	1111.7013      	1111.77        	1111.6495      	1111.7064      	1111.632       	1111.6687      	1111.7559      	1111.629       	1111.6125      	1111.6927      	1111.6769      	1111.6927      	1111.6151      	1111.7595      	1111.6632      	1111.7251      	1111.6338      	1111.7542      	1111.569       	1111.6335      	1111.6858      	1111.679       	1111.6785      	1111.688       	1111.5588      	1111.6337      	1111.6141      	1111.5404      	1111.6022      	1112.0093      	1111.7222      	1111.7096      	1111.6699      	1111.5718      	1111.5214      	1111.4716      	1111.4923      	1111.3995      	1111.579       	1111.5347      	1111.4414      	1111.4093      	
1111.4865      	1111.4293      	1111.4729      	1111.4574      	1111.4733      	1111.4923      	1111.5242      	1111.4855      	1111.4937      	1111.5497      	1111.5115      	1111.5317      	1111.5277      	1111.5514      	1111.5188      	1111.57        	1111.5657      	1111.5538      	1111.5759      	1111.4552      	1111.5975      	1111.5637      	1111.57        	1111.5895      	1111.5347      	1111.5929      	1111.5588      	1111.5474      	1111.523       	1111.66        	1111.4908      	1111.5712      	1111.5938      	1111.5691      	1111.5776      	1111.5354      	1111.5175      	1111.6543      	1111.626       	1111.6333      	1111.5922      	1111.6256      	1111.635       	1111.6194      	1111.6155      	1111.5894      	1111.5731      	1111.5847      	1111.6399      	1111.5892      	1111.5822      	1111.625       	1111.5165      	1111.6776      	1111.5372      	1111.7164      	1111.5958      	1111.6086      	1111.6075      	1111.6329      	1111.5518      	1111.4838      	1111.7327      	1111.384       	1111.5466      	1111.6271      	1111.6177      	1111.6124      	1111.5614      	1111.5886      	1111.6252      	1111.6036      	1111.5553      	1111.5435      	1111.5936      	1111.5548      	1111.5757      	1111.577       	1111.5488      	1111.5021      	1111.5692      	1111.5703      	1111.5126      	1111.5518      	1111.5015      	1111.5371      	1111.5452      	1111.746       	1111.7202      	1111.5731      	1111.6245      	1111.5829      	1111.4592      	1111.4159      	1111.4618      	1111.377       	1111.4978      	1111.426       	1111.408       	1111.37        	
1111.4202      	1111.4149      	1111.4423      	1111.4644      	1111.4692      	1111.4277      	1111.4312      	1111.4634      	1111.3855      	1111.5265      	1111.4218      	1111.4657      	1111.5076      	1111.4915      	1111.4786      	1111.4812      	1111.4653      	1111.5024      	1111.4495      	1111.5073      	1111.4513      	1111.4181      	1111.4778      	1111.3712      	1111.3898      	1111.4653      	1111.3892      	1111.4718      	1111.4014      	1111.4081      	1111.4327      	1111.4164      	1111.4512      	1111.4456      	1111.4974      	1111.4617      	1111.4366      	1111.47        	1111.4882      	1111.5186      	1111.4141      	1111.5302      	1111.552       	1111.5018      	1111.5398      	1111.4146      	1111.5237      	1111.5344      	1111.424       	1111.447       	1111.588       	1111.4133      	1111.5299      	1111.478       	1111.4807      	1111.549       	1111.5228      	1111.5134      	1111.645       	1111.7332      	1111.5332      	1111.4027      	1111.3728      	1111.2316      	1110.9885      	1111.4644      	1111.3759      	1111.4929      	1111.5271      	1111.4569      	1111.4249      	1111.4487      	1111.4574      	1111.4486      	1111.4371      	1111.4435      	1111.4761      	1111.4744      	1111.4979      	1111.489       	1111.4269      	1111.4442      	1111.4015      	1111.4569      	1111.4166      	1111.4331      	1111.3483      	1111.4617      	1111.7494      	1111.5565      	1111.5051      	1111.4434      	1111.3888      	1111.3357      	1111.2437      	1111.3126      	1111.3688      	1111.2977      	1111.2874      	1111.3456      	
1111.3436      	1111.3619      	1111.3591      	1111.3342      	1111.3402      	1111.4552      	1111.4816      	1111.4686      	1111.3726      	1111.5007      	1111.4167      	1111.5017      	1111.461       	1111.469       	1111.4753      	1111.405       	1111.4956      	1111.4861      	1111.5017      	1111.4554      	1111.4934      	1111.4578      	1111.4829      	1111.4174      	1111.4712      	1111.4958      	1111.3478      	1111.5632      	1111.4484      	1111.3798      	1111.5126      	1111.5109      	1111.5011      	1111.4948      	1111.503       	1111.4529      	1111.5062      	1111.505       	1111.523       	1111.5282      	1111.5292      	1111.5774      	1111.5164      	1111.5662      	1111.5316      	1111.4467      	1111.562       	1111.5541      	1111.5376      	1111.4186      	1111.6062      	1111.5286      	1111.5333      	1111.5759      	1111.427       	1111.8529      	1111.6475      	1111.5837      	1111.5002      	1111.6552      	1111.5522      	1111.4728      	1111.4084      	1111.2927      	1111.0325      	1111.4021      	1111.3241      	1111.5348      	1111.5115      	1111.4402      	1111.407       	1111.4407      	1111.4973      	1111.4683      	1111.4532      	1111.4636      	1111.4312      	1111.4182      	1111.4724      	1111.4373      	1111.4366      	1111.4347      	1111.4598      	1111.422       	1111.4371      	1111.4796      	1111.3763      	1111.3844      	1111.7283      	1111.5701      	1111.5083      	1111.523       	1111.4227      	1111.3582      	1111.3816      	1111.3396      	1111.3363      	1111.3508      	1111.336       	1111.3087      	
1111.4456      	1111.4329      	1111.4366      	1111.4452      	1111.5314      	1111.5131      	1111.4924      	1111.572       	1111.5271      	1111.515       	1111.5253      	1111.5812      	1111.4465      	1111.6445      	1111.5515      	1111.5321      	1111.4512      	1111.6         	1111.616       	1111.5873      	1111.5397      	1111.5757      	1111.5378      	1111.4845      	1111.5728      	1111.5399      	1111.5608      	1111.5255      	1111.5667      	1111.6033      	1111.5415      	1111.6056      	1111.5875      	1111.4406      	1111.7325      	1111.596       	1111.631       	1111.6877      	1111.5988      	1111.6923      	1111.5404      	1111.5704      	1111.6948      	1111.65        	1111.6831      	1111.6011      	1111.6926      	1111.5476      	1111.7362      	1111.729       	1111.8162      	1111.7616      	1111.7684      	1111.6576      	1111.6335      	1111.7345      	1111.6301      	1111.6321      	1111.6812      	1111.6237      	1111.5685      	1111.4509      	1111.5302      	1111.397       	1111.287       	1111.1921      	1111.5879      	1111.4866      	1111.5887      	1111.5724      	1111.5505      	1111.5585      	1111.4652      	1111.6962      	1111.537       	1111.5404      	1111.563       	1111.5775      	1111.5626      	1111.5596      	1111.4989      	1111.5853      	1111.5334      	1111.5684      	1111.506       	1111.4796      	1111.5775      	1111.4867      	1111.782       	1111.7944      	1111.6361      	1111.6376      	1111.4669      	1111.5792      	1111.4238      	1111.5583      	1111.5338      	1111.3826      	1111.4905      	1111.5134      	
1111.4366      	1111.4136      	1111.3605      	1111.4451      	1111.5442      	1111.5809      	1111.5165      	1111.5581      	1111.613       	1111.5054      	1111.5334      	1111.4803      	1111.6722      	1111.5713      	1111.5801      	1111.6274      	1111.5546      	1111.5801      	1111.6368      	1111.587       	1111.6564      	1111.559       	1111.5754      	1111.6102      	1111.5497      	1111.5574      	1111.6168      	1111.4948      	1111.6384      	1111.5634      	1111.6262      	1111.6621      	1111.6282      	1111.6062      	1111.6477      	1111.6681      	1111.5615      	1111.6324      	1111.6869      	1111.6292      	1111.6682      	1111.6613      	1111.5874      	1111.5331      	1111.6346      	1111.8022      	1111.7231      	1111.7527      	1111.6915      	1111.6577      	1111.6971      	1111.6174      	1111.5356      	1111.721       	1111.5863      	1111.5679      	1111.6445      	1111.6428      	1111.5745      	1111.5813      	1111.6163      	1111.6144      	1111.4052      	1111.387       	1111.3608      	1111.1508      	1111.3563      	1111.66        	1111.569       	1111.5326      	1111.6615      	1111.5685      	1111.5994      	1111.5223      	1111.5973      	1111.5767      	1111.5526      	1111.6292      	1111.5859      	1111.5676      	1111.5282      	1111.564       	1111.4993      	1111.5366      	1111.6125      	1111.4604      	1111.492       	1111.5078      	1111.7977      	1111.7039      	1111.6082      	1111.6189      	1111.5522      	1111.5239      	1111.4851      	1111.4528      	1111.5077      	1111.5612      	1111.5527      	1111.5751      	
1111.5758      	1111.5997      	1111.5864      	1111.3982      	1111.4116      	1111.7585      	1111.6348      	1111.6323      	1111.5803      	1111.6569      	1111.6038      	1111.6449      	1111.5764      	1111.6426      	1111.549       	1111.5614      	1111.7471      	1111.6069      	1111.6512      	1111.4937      	1111.7183      	1111.6075      	1111.5879      	1111.6259      	1111.6451      	1111.6066      	1111.5089      	1111.6417      	1111.6144      	1111.6575      	1111.6945      	1111.633       	1111.6587      	1111.6449      	1111.7538      	1111.5392      	1111.6349      	1111.712       	1111.7134      	1111.6196      	1111.6259      	1111.686       	1111.9005      	1111.8352      	1111.8009      	1111.7236      	1111.7151      	1111.761       	1111.686       	1111.7104      	1111.6866      	1111.6288      	1111.7117      	1111.5222      	1111.574       	1111.6674      	1111.6251      	1111.6034      	1111.5625      	1111.701       	1111.5502      	1111.61        	1111.5526      	1111.4526      	1111.2494      	1111.4143      	1111.2         	1111.7413      	1111.669       	1111.6416      	1111.6407      	1111.532       	1111.5813      	1111.6487      	1111.5714      	1111.646       	1111.6171      	1111.5637      	1111.652       	1111.5309      	1111.5607      	1111.6309      	1111.5974      	1111.4932      	1111.6707      	1111.5776      	1111.47        	1111.4419      	1111.8533      	1111.8416      	1111.7026      	1111.6702      	1111.686       	1111.5374      	1111.5549      	1111.6025      	1111.4788      	1111.5232      	1111.5161      	1111.5405      	
1111.6506      	1111.6896      	1111.6599      	1111.4783      	1111.5197      	1111.6783      	1111.7847      	1111.7047      	1111.7078      	1111.7605      	1111.7423      	1111.7345      	1111.7255      	1111.6779      	1111.7561      	1111.783       	1111.6947      	1111.6722      	1111.6766      	1111.7325      	1111.7168      	1111.6212      	1111.7063      	1111.7195      	1111.7068      	1111.7057      	1111.6914      	1111.6537      	1111.7518      	1111.7173      	1111.7598      	1111.7487      	1111.7168      	1111.619       	1111.7726      	1111.7427      	1111.8833      	1111.9812      	1111.8457      	1111.7994      	1111.8705      	1111.8173      	1111.789       	1111.7524      	1111.7808      	1111.7218      	1111.7562      	1111.6973      	1111.6073      	1111.7269      	1111.699       	1111.7222      	1111.7229      	1111.5942      	1111.656       	1111.6852      	1111.6575      	1111.5759      	1111.6865      	1111.6313      	1111.6182      	1111.6714      	1111.5955      	1111.5822      	1111.2924      	1111.3198      	1111.3022      	1111.7649      	1111.6587      	1111.5713      	1111.6268      	1111.6179      	1111.6075      	1111.5669      	1111.6665      	1111.5918      	1111.5845      	1111.5382      	1111.5659      	1111.5927      	1111.552       	1111.5212      	1111.5488      	1111.5659      	1111.6832      	1111.4602      	1111.5266      	1111.5116      	1111.5894      	1111.9557      	1111.7473      	1111.702       	1111.6665      	1111.5917      	1111.532       	1111.5406      	1111.6964      	1111.6808      	1111.5988      	1111.5107      	
1111.7853      	1111.8007      	1111.812       	1111.867       	1111.7878      	1111.766       	1111.9155      	1111.852       	1111.8197      	1111.8748      	1111.8889      	1111.8401      	1111.8861      	1111.8274      	1111.8298      	1111.7307      	1111.8911      	1111.9182      	1111.8582      	1111.7891      	1111.8848      	1111.7363      	1111.9172      	1111.8695      	1111.8412      	1111.8693      	1111.865       	1111.878       	1111.866       	1111.9006      	1111.9214      	1111.9646      	1111.8276      	1112.0809      	1112.1647      	1112.0535      	1111.9205      	1112.0646      	1111.8789      	1111.9691      	1111.9928      	1111.9406      	1111.9083      	1111.9478      	1111.7997      	1111.894       	1111.8627      	1111.7526      	1111.9578      	1111.7332      	1111.8201      	1111.8254      	1111.7346      	1111.8491      	1111.7683      	1111.7052      	1111.8069      	1111.8257      	1111.6978      	1111.7426      	1111.7214      	1111.7632      	1111.7004      	1111.7228      	1111.5376      	1111.1451      	1111.3423      	1111.8536      	1111.7139      	1111.6665      	1111.7002      	1111.7394      	1111.7031      	1111.7024      	1111.5815      	1111.804       	1111.6418      	1111.6519      	1111.6063      	1111.7625      	1111.7173      	1111.6698      	1111.6646      	1111.7009      	1111.6814      	1111.6807      	1111.7205      	1111.6626      	1111.6887      	1111.9076      	1111.9503      	1111.8286      	1111.8517      	1111.7703      	1111.7323      	1111.6936      	1111.6749      	1111.676       	1111.8574      	1111.6958      	
1111.7733      	1111.7491      	1111.6101      	1111.5076      	1111.8489      	1111.8536      	1111.8829      	1111.8821      	1111.8208      	1111.8221      	1111.777       	1111.797       	1111.9087      	1111.7433      	1111.8795      	1111.8619      	1111.6289      	1111.9076      	1111.8553      	1111.8677      	1111.8536      	1111.8391      	1111.7697      	1111.8475      	1111.883       	1111.8146      	1111.9032      	1111.7808      	1111.8958      	1111.866       	1112.147       	1112.0886      	1111.9407      	1111.965       	1111.9993      	1111.9567      	1111.8789      	1111.8944      	1112.0094      	1111.974       	1111.9386      	1111.9082      	1111.9039      	1111.9484      	1111.8433      	1111.8596      	1111.816       	1111.8087      	1111.947       	1111.8544      	1111.7814      	1111.7853      	1111.8077      	1111.9276      	1111.8501      	1111.8938      	1111.7938      	1111.8572      	1111.7494      	1111.7953      	1111.8312      	1111.7443      	1111.7542      	1111.6797      	1111.5549      	1111.512       	1111.2007      	1111.7335      	1111.8005      	1111.7931      	1111.6913      	1111.8247      	1111.7878      	1111.6477      	1111.7615      	1111.8495      	1111.699       	1111.7092      	1111.6445      	1111.8         	1111.6295      	1111.7323      	1111.6244      	1111.8109      	1111.5822      	1111.5182      	1111.6863      	1111.6289      	1111.687       	1111.7437      	1111.9666      	1111.8169      	1111.8134      	1111.722       	1111.6858      	1111.6233      	1111.6644      	1111.6255      	1111.7365      	1111.7401      	
1111.7505      	1111.7026      	1111.754       	1111.8423      	1111.808       	1111.7631      	1111.8501      	1111.804       	1111.8613      	1111.8289      	1111.753       	1111.8455      	1111.8177      	1111.7587      	1111.8439      	1111.8245      	1111.805       	1111.7944      	1111.7823      	1111.8358      	1111.7316      	1111.7205      	1111.8573      	1111.6417      	1111.8235      	1111.8152      	1111.9182      	1111.7609      	1112.0822      	1112.1326      	1111.9872      	1111.8391      	1111.9         	1111.9171      	1111.8629      	1111.8555      	1111.8438      	1111.8538      	1111.8993      	1111.8401      	1111.8494      	1111.8668      	1111.8159      	1111.7919      	1111.7915      	1111.8082      	1111.8298      	1111.8346      	1111.8228      	1111.8312      	1111.7941      	1111.6932      	1111.746       	1111.7775      	1111.6815      	1111.7203      	1111.7334      	1111.6274      	1111.8115      	1111.6866      	1111.7258      	1111.6736      	1111.6534      	1111.6997      	1111.4589      	1111.3821      	1111.2596      	1111.38        	1111.8169      	1111.7327      	1111.7         	1111.6833      	1111.6034      	1111.5221      	1111.7527      	1111.5667      	1111.7139      	1111.6503      	1111.6404      	1111.6499      	1111.6346      	1111.5394      	1111.5474      	1111.5668      	1111.5562      	1111.7499      	1111.5964      	1111.6481      	1111.6108      	1111.7142      	1111.9607      	1111.7736      	1111.8295      	1111.7372      	1111.7074      	1111.6571      	1111.5803      	1111.6655      	1111.631       	1111.683       	
1111.9384      	1111.8915      	1111.896       	1111.9069      	1111.9397      	1111.8805      	1111.9491      	1111.9766      	1111.9058      	1111.9314      	1111.9458      	1111.9077      	1111.7496      	1111.5458      	1111.8582      	1111.7626      	1112.101       	1111.9276      	1112.05        	1111.9292      	1111.8992      	1111.9756      	1111.9281      	1111.9851      	1111.9487      	1111.8662      	1111.7904      	1112.408       	1112.2885      	1112.181       	1112.045       	1112.0005      	1111.9882      	1111.9884      	1111.9478      	1111.8927      	1111.9388      	1111.9972      	1111.7714      	1112.1174      	1111.9753      	1111.906       	1111.9517      	1111.9355      	1111.9581      	1111.8241      	1111.836       	1111.9452      	1111.811       	1111.849       	1111.7957      	1111.8916      	1111.8798      	1111.8728      	1111.9817      	1111.8608      	1111.7689      	1111.8953      	1111.9115      	1111.8807      	1111.672       	1111.8448      	1111.8073      	1111.8921      	1111.592       	1111.569       	1111.3641      	1111.4364      	1111.9716      	1111.9042      	1111.7953      	1111.8796      	1111.7986      	1111.8492      	1111.7657      	1111.786       	1111.8623      	1111.8342      	1111.8202      	1111.8318      	1111.8679      	1111.7476      	1111.8429      	1111.7932      	1111.8179      	1111.771       	1111.733       	1111.8849      	1111.8634      	1111.757       	1112.2296      	1112.0013      	1111.9689      	1111.9435      	1111.9058      	1111.8479      	1111.7993      	1111.8282      	1111.8845      	1111.8293      	
1112.1663      	1112.0734      	1112.0466      	1112.1545      	1112.1075      	1112.2458      	1112.2501      	1112.2021      	1112.1239      	1112.2086      	1112.261       	1112.2173      	1112.158       	1112.2194      	1112.1278      	1112.3073      	1112.177       	1112.14        	1112.2235      	1112.1606      	1112.1802      	1112.0319      	1112.0927      	1112.1992      	1112.2411      	1112.255       	1112.2759      	1112.5905      	1112.365       	1112.3474      	1112.3136      	1112.2767      	1112.2079      	1112.2192      	1112.2233      	1112.12        	1112.2183      	1112.1846      	1112.1016      	1112.2391      	1112.2211      	1112.1768      	1112.0619      	1112.2238      	1112.2152      	1112.0857      	1112.1393      	1112.0752      	1112.0829      	1111.9707      	1112.2638      	1112.0889      	1111.9407      	1112.1228      	1112.1047      	1112.029       	1111.8638      	1112.1261      	1112.1011      	1112.0963      	1112.0325      	1112.049       	1112.0964      	1112.1119      	1112.007       	1111.7689      	1111.6847      	1111.6534      	1112.0504      	1112.1376      	1111.9642      	1112.1017      	1111.9784      	1112.1553      	1112.0454      	1111.9841      	1112.0847      	1112.0067      	1112.0819      	1111.9363      	1112.0325      	1112.0148      	1112.0311      	1111.9735      	1112.0485      	1112.0164      	1111.9149      	1112.1354      	1112.0664      	1112.0564      	1112.362       	1112.3301      	1112.2048      	1112.2156      	1112.2003      	1112.1627      	1112.1132      	1112.087       	1112.1174      	1112.1698      	
1112.4304      	1112.3884      	1112.2179      	1112.417       	1112.4929      	1112.5007      	1112.3866      	1112.4426      	1112.496       	1112.4928      	1112.4019      	1112.5183      	1112.5195      	1112.4346      	1112.4241      	1112.4999      	1112.4514      	1112.5115      	1112.4181      	1112.5294      	1112.4495      	1112.523       	1112.4751      	1112.3708      	1112.4347      	1112.4702      	1112.7622      	1112.7544      	1112.6525      	1112.6343      	1112.5657      	1112.4696      	1112.5831      	1112.5181      	1112.5471      	1112.4453      	1112.5172      	1112.5741      	1112.4692      	1112.6243      	1112.5059      	1112.4783      	1112.4388      	1112.3748      	1112.4285      	1112.4634      	1112.4177      	1112.4559      	1112.4242      	1112.4204      	1112.4088      	1112.3383      	1112.448       	1112.44        	1112.3895      	1112.412       	1112.4132      	1112.4072      	1112.4633      	1112.3601      	1112.4604      	1112.388       	1112.5092      	1112.4355      	1112.5178      	1112.323       	1112.0802      	1111.8179      	1112.4656      	1112.5354      	1112.4442      	1112.4039      	1112.4233      	1112.3983      	1112.3848      	1112.4386      	1112.2842      	1112.4725      	1112.3613      	1112.3339      	1112.4434      	1112.3605      	1112.401       	1112.4042      	1112.3301      	1112.4132      	1112.3569      	1112.3267      	1112.4473      	1112.4136      	1112.4774      	1112.7938      	1112.579       	1112.662       	1112.5757      	1112.5085      	1112.4934      	1112.4233      	1112.5454      	1112.5474      	
1112.6691      	1112.5905      	1112.5178      	1112.7616      	1112.6971      	1112.5903      	1112.6294      	1112.5887      	1112.6575      	1112.642       	1112.7007      	1112.6433      	1112.7562      	1112.603       	1112.6576      	1112.6384      	1112.6128      	1112.6764      	1112.6399      	1112.6255      	1112.5981      	1112.5808      	1112.6824      	1112.5157      	1112.7786      	1112.6925      	1112.7747      	1112.9822      	1112.7976      	1112.8127      	1112.8083      	1112.6915      	1112.632       	1112.5958      	1112.7175      	1112.5736      	1112.6401      	1112.6039      	1112.677       	1112.5145      	1112.6562      	1112.5626      	1112.5577      	1112.587       	1112.5466      	1112.5544      	1112.5145      	1112.5085      	1112.519       	1112.4836      	1112.6268      	1112.5532      	1112.5562      	1112.58        	1112.5505      	1112.5327      	1112.5245      	1112.489       	1112.5581      	1112.4939      	1112.5505      	1112.4543      	1112.5383      	1112.4415      	1112.588       	1112.3638      	1112.1697      	1112.0621      	1112.0643      	1112.5776      	1112.4681      	1112.4749      	1112.4661      	1112.4608      	1112.489       	1112.4797      	1112.4132      	1112.4224      	1112.5118      	1112.4586      	1112.4554      	1112.4667      	1112.354       	1112.5333      	1112.4696      	1112.3395      	1112.4136      	1112.5216      	1112.3782      	1112.4907      	1112.496       	1112.8667      	1112.633       	1112.6292      	1112.6486      	1112.5779      	1112.453       	1112.5552      	1112.6726      	1112.6268      	
1112.7214      	1112.6923      	1112.6515      	1112.6512      	1112.7677      	1112.6891      	1112.6906      	1112.7421      	1112.6785      	1112.728       	1112.6616      	1112.7382      	1112.6975      	1112.7068      	1112.6609      	1112.6929      	1112.7035      	1112.6649      	1112.6847      	1112.6376      	1112.7319      	1112.6144      	1112.5706      	1112.8341      	1112.6721      	1112.6886      	1112.6947      	1113.0226      	1112.989       	1112.8069      	1112.8348      	1112.746       	1112.6525      	1112.6937      	1112.6641      	1112.6528      	1112.6218      	1112.7043      	1112.5684      	1112.6353      	1112.577       	1112.6555      	1112.5685      	1112.6692      	1112.5812      	1112.6702      	1112.5393      	1112.5867      	1112.4733      	1112.6066      	1112.573       	1112.6283      	1112.5967      	1112.4241      	1112.6454      	1112.6011      	1112.5985      	1112.5376      	1112.5931      	1112.4977      	1112.6538      	1112.5254      	1112.423       	1112.7478      	1112.592       	1112.4667      	1112.3622      	1112.1259      	1112.2283      	1112.5264      	1112.5089      	1112.6129      	1112.3878      	1112.518       	1112.5315      	1112.4911      	1112.5449      	1112.5256      	1112.487       	1112.5222      	1112.4615      	1112.5256      	1112.531       	1112.5288      	1112.4562      	1112.5189      	1112.5497      	1112.4829      	1112.5415      	1112.4968      	1112.6355      	1112.9124      	1112.7559      	1112.7708      	1112.7839      	1112.696       	1112.667       	1112.556       	1112.5431      	1112.635       	
1112.8195      	1112.6356      	1112.4327      	1112.645       	1112.9182      	1112.755       	1112.878       	1112.7598      	1112.7351      	1112.7933      	1112.7578      	1112.6804      	1112.7094      	1112.7346      	1112.7408      	1112.7152      	1112.7167      	1112.727       	1112.8667      	1112.769       	1112.7533      	1112.731       	1112.6456      	1112.778       	1112.8052      	1112.6238      	1112.784       	1112.9457      	1113.0364      	1112.9425      	1112.8945      	1112.8431      	1112.8088      	1112.746       	1112.7091      	1112.596       	1112.7941      	1112.8235      	1112.789       	1112.7986      	1112.6193      	1112.5913      	1112.8713      	1112.5687      	1112.6791      	1112.6809      	1112.6385      	1112.5564      	1112.7274      	1112.6622      	1112.5927      	1112.6852      	1112.6068      	1112.7174      	1112.5073      	1112.797       	1112.6299      	1112.5925      	1112.7839      	1112.5411      	1112.5824      	1112.7557      	1112.6345      	1112.6191      	1112.5969      	1112.4448      	1112.5259      	1112.2378      	1112.3739      	1112.488       	1112.6417      	1112.6096      	1112.6016      	1112.6285      	1112.5168      	1112.6183      	1112.604       	1112.4906      	1112.589       	1112.5363      	1112.5695      	1112.6263      	1112.6056      	1112.5784      	1112.5411      	1112.5828      	1112.6348      	1112.6058      	1112.6576      	1112.5701      	1112.6327      	1113.0658      	1112.8801      	1112.822       	1112.8042      	1112.8237      	1112.7762      	1112.7747      	1112.7781      	1112.7329      	
1112.8638      	1112.7277      	1112.5436      	1112.4719      	1112.3038      	1112.854       	1112.8569      	1112.878       	1112.8308      	1112.7438      	1112.8112      	1112.744       	1112.8577      	1112.8036      	1112.7462      	1112.7798      	1112.8408      	1112.7502      	1112.827       	1112.8444      	1112.6653      	1112.7421      	1112.8094      	1112.765       	1112.7178      	1112.7518      	1112.9109      	1113.0106      	1113.2284      	1112.933       	1112.9302      	1112.9048      	1112.8191      	1112.7314      	1112.7009      	1112.7483      	1112.7026      	1112.6736      	1112.7596      	1112.7067      	1112.7673      	1112.5667      	1112.5786      	1112.6226      	1112.7532      	1112.7365      	1112.6682      	1112.6384      	1112.6663      	1112.705       	1112.6466      	1112.7214      	1112.6979      	1112.6819      	1112.7244      	1112.6353      	1112.7075      	1112.6914      	1112.7328      	1112.6843      	1112.8136      	1112.6106      	1112.886       	1112.5607      	1112.7546      	1112.535       	1112.5808      	1112.2683      	1112.3022      	1112.7095      	1112.7794      	1112.6558      	1112.7239      	1112.6844      	1112.7059      	1112.5837      	1112.7045      	1112.6069      	1112.6272      	1112.6473      	1112.6244      	1112.7191      	1112.6554      	1112.6354      	1112.675       	1112.5968      	1112.4832      	1112.8158      	1112.7043      	1112.6681      	1112.7031      	1112.9666      	1112.9698      	1112.9935      	1112.8577      	1112.9034      	1112.8491      	1112.7747      	1112.6625      	1113.0089      	
1112.9136      	1112.9133      	1112.5491      	1112.4618      	1112.372       	1112.6311      	1113.014       	1112.8563      	1113.0471      	1112.968       	1112.8605      	1112.9413      	1112.9298      	1112.8635      	1112.8185      	1112.9344      	1112.9075      	1112.8792      	1112.8915      	1112.8817      	1112.9573      	1112.8728      	1112.8365      	1113.0073      	1112.886       	1112.9259      	1112.9265      	1112.9207      	1113.215       	1113.1675      	1113.0522      	1113.0579      	1112.9706      	1112.946       	1112.8708      	1112.8557      	1112.948       	1112.8367      	1112.851       	1112.8649      	1112.7053      	1112.8048      	1112.7899      	1112.6893      	1112.7095      	1112.8425      	1112.6873      	1112.739       	1112.7491      	1112.9049      	1112.8691      	1112.9529      	1112.8534      	1112.8325      	1112.8235      	1112.8258      	1112.9374      	1112.8276      	1112.9048      	1112.8447      	1112.8689      	1112.957       	1112.7645      	1112.8279      	1112.9061      	1112.8773      	1112.5546      	1112.7329      	1112.318       	1112.6819      	1112.9371      	1112.8541      	1112.8094      	1112.8383      	1112.8435      	1112.7457      	1112.8406      	1112.8427      	1112.7938      	1112.8699      	1112.8438      	1112.8058      	1112.77        	1112.8291      	1112.8741      	1112.7899      	1112.8419      	1112.8577      	1112.8921      	1112.864       	1112.8628      	1113.0144      	1113.273       	1113.0813      	1113.0885      	1113.0663      	1113.0161      	1112.9419      	1112.8915      	1113.0916      	
1113.062       	1112.9852      	1112.8883      	1112.8016      	1112.473       	1112.5054      	1113.2423      	1113.0364      	1113.1218      	1112.9663      	1113.0491      	1113.09        	1113.0367      	1113.0248      	1112.9863      	1112.9354      	1112.9138      	1113.0372      	1113.054       	1113.0284      	1113.0713      	1113.0422      	1113.0242      	1113.0779      	1113.0573      	1113.0398      	1113.0461      	1112.8907      	1113.4937      	1113.2856      	1113.1516      	1113.0948      	1113.2557      	1113.0496      	1113.0094      	1112.9368      	1113.1035      	1112.9827      	1112.9052      	1113.0712      	1113.0682      	1112.893       	1113.0126      	1113.0294      	1112.9512      	1112.9797      	1112.9614      	1112.9706      	1113.0236      	1112.9381      	1113.0226      	1112.9913      	1113.0575      	1113.0255      	1113.1067      	1113.0042      	1113.1073      	1113.0533      	1112.9812      	1113.132       	1113.0076      	1113.0833      	1113.0293      	1113.0828      	1112.9862      	1113.081       	1112.9572      	1112.8231      	1112.5405      	1112.6511      	1113.2668      	1112.9266      	1113.1449      	1112.978       	1113.0635      	1113.0519      	1112.9683      	1112.959       	1113.1012      	1113.0415      	1113.033       	1112.9467      	1113.0132      	1113.001       	1113.0037      	1112.9879      	1113.0046      	1113.0968      	1113.0856      	1113.0569      	1113.0682      	1113.0466      	1113.5253      	1113.2759      	1113.3022      	1113.2903      	1113.2435      	1113.2042      	1113.2323      	1113.2104      	
1113.4614      	1113.387       	1113.225       	1113.1023      	1113.0549      	1113.1064      	1113.3225      	1113.4662      	1113.4458      	1113.3823      	1113.3872      	1113.3934      	1113.3657      	1113.4089      	1113.3811      	1113.453       	1113.4321      	1113.407       	1113.4108      	1113.3923      	1113.473       	1113.4014      	1113.3418      	1113.4515      	1113.4321      	1113.4585      	1113.3634      	1113.3925      	1113.5419      	1113.7667      	1113.5839      	1113.5242      	1113.5027      	1113.4204      	1113.3584      	1113.2576      	1113.4514      	1113.2946      	1113.465       	1113.3917      	1113.4583      	1113.3794      	1113.3107      	1113.4075      	1113.3091      	1113.3582      	1113.3384      	1113.3599      	1113.3495      	1113.3505      	1113.4122      	1113.3876      	1113.3315      	1113.4059      	1113.4575      	1113.3481      	1113.368       	1113.4276      	1113.4083      	1113.4244      	1113.3505      	1113.4924      	1113.4451      	1113.3585      	1113.507       	1113.3485      	1113.2827      	1113.3267      	1112.9209      	1113.009       	1113.4655      	1113.3079      	1113.3961      	1113.3813      	1113.4062      	1113.4526      	1113.4276      	1113.3771      	1113.4031      	1113.37        	1113.4227      	1113.3502      	1113.3892      	1113.4749      	1113.4298      	1113.4493      	1113.4802      	1113.5323      	1113.4789      	1113.508       	1113.4569      	1113.5203      	1113.8142      	1113.7722      	1113.7139      	1113.7488      	1113.6534      	1113.645       	1113.5402      	1113.6385      	
1113.8062      	1113.7482      	1113.6151      	1113.4889      	1113.3468      	1113.5411      	1113.517       	1113.9143      	1113.6887      	1113.7368      	1113.7621      	1113.7098      	1113.8489      	1113.7941      	1113.6588      	1113.5208      	1113.849       	1113.8125      	1113.768       	1113.6965      	1113.7283      	1113.683       	1113.7213      	1113.8163      	1113.8248      	1113.8931      	1113.8015      	1113.7991      	1113.8037      	1114.1385      	1113.971       	1113.9072      	1113.8838      	1113.8484      	1113.6887      	1113.6394      	1113.7925      	1113.7484      	1113.6095      	1113.7911      	1113.7352      	1113.7029      	1113.736       	1113.725       	1113.7738      	1113.7887      	1113.7152      	1113.8016      	1113.7339      	1113.8091      	1113.8003      	1113.825       	1113.8406      	1113.7706      	1113.8871      	1113.807       	1113.8887      	1113.8157      	1113.8235      	1113.8994      	1113.8801      	1113.8523      	1113.7747      	1113.8817      	1113.8113      	1113.9335      	1113.9099      	1113.7151      	1113.4913      	1113.3947      	1113.6976      	1113.852       	1113.6918      	1113.9165      	1113.8862      	1113.7993      	1113.857       	1113.8862      	1113.9338      	1113.9075      	1113.8783      	1113.8896      	1113.9498      	1113.8792      	1113.879       	1113.9032      	1113.9375      	1113.949       	1113.9497      	1113.9259      	1113.9548      	1114.019       	1114.0748      	1114.3945      	1114.1489      	1114.1903      	1114.1826      	1114.1079      	1114.0503      	1114.0195      	
1114.2134      	1114.19        	1114.0581      	1113.9454      	1113.814       	1113.8204      	1113.9614      	1114.2756      	1114.2369      	1114.1481      	1114.065       	1114.2352      	1114.2306      	1114.218       	1114.1752      	1114.1056      	1114.3177      	1114.1974      	1114.1381      	1114.1658      	1114.1932      	1114.2369      	1114.0831      	1114.269       	1114.2029      	1114.1624      	1114.2042      	1114.186       	1114.1407      	1114.4618      	1114.4872      	1114.2859      	1114.2548      	1114.2386      	1114.1395      	1114.135       	1114.0676      	1114.0162      	1114.2466      	1114.0522      	1114.2104      	1114.0703      	1114.0691      	1114.1418      	1113.9677      	1114.2312      	1114.16        	1114.0603      	1114.1698      	1114.1334      	1114.1536      	1114.1073      	1114.1044      	1114.1906      	1114.0546      	1114.0774      	1114.2727      	1114.2151      	1114.129       	1114.1348      	1114.2142      	1114.115       	1114.2062      	1114.042       	1114.2505      	1114.1941      	1114.1034      	1114.0095      	1113.6987      	1113.9479      	1113.6927      	1114.2911      	1114.1552      	1114.0773      	1114.1886      	1114.1235      	1114.109       	1114.1349      	1114.0221      	1114.0079      	1114.1637      	1114.2443      	1114.1167      	1114.0969      	1114.202       	1114.165       	1114.1432      	1114.1915      	1114.2214      	1114.1039      	1114.2201      	1114.0688      	1114.383       	1114.5614      	1114.3977      	1114.4335      	1114.4124      	1114.27        	1114.3804      	1114.2385      	
1114.0872      	1114.0828      	1113.9536      	1113.7992      	1113.9316      	1113.6501      	1113.5148      	1114.1807      	1114.0432      	1114.109       	1113.9147      	1113.8373      	1114.1217      	1114.0138      	1114.062       	1114.0146      	1114.008       	1113.9807      	1113.9866      	1113.9016      	1113.7892      	1114.0875      	1114.0637      	1114.0181      	1113.9568      	1114.0258      	1113.9249      	1113.9805      	1113.9745      	1114.0579      	1114.2852      	1114.0835      	1114.084       	1113.9783      	1113.9227      	1113.8884      	1113.8479      	1113.8816      	1113.8671      	1113.8097      	1113.8727      	1113.9196      	1113.7727      	1113.8618      	1113.9252      	1113.7582      	1113.8746      	1113.8655      	1113.7463      	1113.8735      	1113.9132      	1113.8378      	1113.8644      	1113.8258      	1113.8318      	1113.8413      	1113.8218      	1113.7611      	1113.9255      	1113.759       	1113.9252      	1113.855       	1113.8069      	1113.8566      	1113.7794      	1113.8634      	1113.8932      	1113.6349      	1113.471       	1113.3771      	1113.3359      	1113.8885      	1113.7788      	1113.7722      	1113.7383      	1113.7333      	1113.7788      	1113.7134      	1113.8191      	1113.8118      	1113.7461      	1113.6782      	1113.7561      	1113.6968      	1113.7911      	1113.7732      	1113.6686      	1113.7755      	1113.7811      	1113.7665      	1113.8527      	1113.7789      	1113.8528      	1114.2148      	1113.9274      	1114.0458      	1113.9803      	1113.914       	1113.865       	1113.8138      	
1113.3057      	1113.2421      	1113.1946      	1113.2213      	1113.0652      	1112.8469      	1112.9591      	1113.1387      	1113.3169      	1113.2827      	1113.2247      	1113.2677      	1113.1665      	1113.3484      	1113.1958      	1113.2612      	1113.2288      	1113.2361      	1113.2148      	1113.2062      	1113.1084      	1113.3054      	1113.1282      	1113.1677      	1113.2297      	1113.1777      	1113.1628      	1113.2126      	1113.1824      	1113.34        	1113.3772      	1113.2892      	1113.3522      	1113.2188      	1113.1031      	1113.0679      	1113.0062      	1113.2128      	1113.1191      	1113.1049      	1113.1056      	1112.9738      	1113.1688      	1113.1503      	1113.086       	1113.1896      	1113.0245      	1113.1957      	1113.1438      	1113.1056      	1113.057       	1113.1715      	1113.0942      	1113.2095      	1113.1484      	1113.1597      	1113.1533      	1113.0935      	1113.1938      	1113.1277      	1113.0809      	1113.1538      	1113.0483      	1113.1102      	1113.2206      	1113.0438      	1112.9329      	1113.1356      	1112.838       	1112.6333      	1112.5988      	1113.2002      	1113.0913      	1113.0033      	1113.0878      	1112.9819      	1113.1078      	1113.0131      	1113.0835      	1113.0597      	1113.0038      	1113.0127      	1112.9186      	1113.1411      	1113.0541      	1113.0571      	1113.1069      	1113.0311      	1113.024       	1113.0897      	1113.1208      	1113.1735      	1113.0745      	1113.334       	1113.4098      	1113.2439      	1113.2023      	1113.1554      	1113.0797      	1112.9939      	
1112.9624      	1112.906       	1112.881       	1112.7517      	1112.6913      	1112.6123      	1112.6218      	1112.675       	1113.062       	1112.9529      	1112.9607      	1112.8295      	1112.9441      	1112.9207      	1112.8856      	1112.9705      	1112.9175      	1112.9894      	1112.8062      	1113.0514      	1113.0071      	1112.8544      	1112.9727      	1112.8108      	1112.862       	1112.9757      	1112.9749      	1112.9181      	1112.8802      	1113.0193      	1113.2583      	1113.0388      	1113.022       	1112.969       	1112.9142      	1112.9132      	1112.8428      	1112.9344      	1112.7964      	1112.9705      	1112.9833      	1112.8325      	1113.0588      	1112.8356      	1112.881       	1113.0377      	1112.762       	1112.9058      	1112.894       	1112.9706      	1113.0054      	1112.956       	1112.9825      	1113.0315      	1113.002       	1112.9788      	1112.8422      	1113.1708      	1113.044       	1112.9425      	1113.1849      	1112.9905      	1113.0806      	1112.9423      	1113.0967      	1112.9188      	1113.0824      	1113.0015      	1112.8636      	1112.6257      	1112.5972      	1112.8757      	1113.0571      	1113.0127      	1112.9755      	1113.0057      	1113.0242      	1112.995       	1113.0447      	1113.0283      	1113.0392      	1113.1055      	1113.1226      	1113.0797      	1113.104       	1113.1283      	1113.1265      	1113.1567      	1113.1531      	1113.0955      	1113.1804      	1113.1157      	1113.2128      	1113.3823      	1113.5344      	1113.2793      	1113.2344      	1113.2034      	1113.3153      	1113.2328      	
1113.4156      	1113.3801      	1113.3466      	1113.2482      	1113.1404      	1113.1897      	1112.9333      	1113.0945      	1113.5448      	1113.4019      	1113.3606      	1113.383       	1113.4366      	1113.3866      	1113.4373      	1113.378       	1113.394       	1113.4637      	1113.3984      	1113.3319      	1113.3743      	1113.4113      	1113.4998      	1113.3665      	1113.2812      	1113.4924      	1113.4213      	1113.4191      	1113.364       	1113.3707      	1113.8231      	1113.5808      	1113.5006      	1113.5286      	1113.5035      	1113.4094      	1113.3269      	1113.4008      	1113.4315      	1113.2473      	1113.4479      	1113.3337      	1113.495       	1113.4282      	1113.3785      	1113.5632      	1113.4591      	1113.5046      	1113.513       	1113.4598      	1113.4784      	1113.508       	1113.5349      	1113.4227      	1113.5181      	1113.4788      	1113.5752      	1113.4772      	1113.5813      	1113.5696      	1113.5166      	1113.4661      	1113.556       	1113.6202      	1113.5708      	1113.5526      	1113.5925      	1113.596       	1113.4509      	1113.3019      	1113.0508      	1113.3505      	1113.687       	1113.5549      	1113.505       	1113.4962      	1113.5917      	1113.5854      	1113.5658      	1113.6157      	1113.4679      	1113.6849      	1113.5913      	1113.6309      	1113.6329      	1113.6201      	1113.6394      	1113.7651      	1113.619       	1113.6909      	1113.6912      	1113.6658      	1113.7131      	1113.7013      	1113.8984      	1113.8792      	1113.7693      	1113.8224      	1113.8254      	1113.8566      	
1113.8243      	1113.784       	1113.6981      	1113.6545      	1113.6957      	1113.449       	1113.3541      	1113.2961      	1113.9431      	1113.836       	1113.8544      	1113.7677      	1113.7487      	1113.936       	1113.8319      	1113.7638      	1113.852       	1113.7292      	1113.8263      	1113.9354      	1113.8875      	1113.7522      	1113.8748      	1113.7677      	1113.8602      	1113.8365      	1113.8495      	1113.718       	1113.7941      	1113.8003      	1114.0223      	1114.1421      	1113.9506      	1113.9607      	1113.8937      	1113.8622      	1113.8041      	1113.8058      	1113.8445      	1113.906       	1113.7974      	1113.8373      	1113.9225      	1113.9735      	1113.8425      	1113.8523      	1113.991       	1113.8369      	1114.011       	1113.9863      	1113.97        	1113.8496      	1114.1681      	1113.9336      	1114.0028      	1113.9818      	1114.0585      	1114.0027      	1114.0651      	1114.0166      	1114.0786      	1114.0972      	1114.0951      	1114.0511      	1113.881       	1114.1443      	1114.1179      	1113.9817      	1113.8839      	1113.8524      	1113.5985      	1113.494       	1114.1251      	1113.9991      	1113.9124      	1113.9966      	1113.9868      	1114.0302      	1113.962       	1113.987       	1114.076       	1114.0354      	1114.0403      	1114.1057      	1114.0309      	1114.1552      	1114.049       	1114.1405      	1114.1525      	1113.9845      	1114.3035      	1114.1658      	1114.122       	1114.1494      	1114.1483      	1114.2332      	1114.3406      	1114.2836      	1114.1384      	1114.2151      	
1114.1321      	1114.1333      	1114.065       	1114.094       	1113.9172      	1113.8608      	1113.7965      	1113.6786      	1114.1177      	1114.1516      	1114.1179      	1114.2048      	1114.0651      	1114.0259      	1114.032       	1113.7131      	1116.4279      	1114.6127      	1114.1517      	1114.1482      	1114.1315      	1114.0493      	1113.9661      	1114.2045      	1114.185       	1114.0405      	1114.1095      	1114.0793      	1114.0857      	1114.0526      	1114.1594      	1114.4921      	1114.2627      	1114.1844      	1114.1993      	1114.1383      	1114.0732      	1114.0669      	1114.1033      	1114.1603      	1114.0603      	1114.1659      	1114.1589      	1114.077       	1114.2134      	1114.1155      	1114.1462      	1114.2567      	1114.1864      	1114.1548      	1114.2513      	1114.1919      	1114.2675      	1114.2429      	1114.1001      	1114.297       	1114.1595      	1114.2174      	1114.3541      	1114.2333      	1114.2538      	1114.272       	1114.245       	1114.273       	1114.2312      	1114.2296      	1114.3462      	1114.1864      	1114.1212      	1114.2122      	1113.8328      	1113.635       	1114.2524      	1114.3391      	1114.2277      	1114.2493      	1114.271       	1114.2615      	1114.2716      	1114.2158      	1114.3643      	1114.3228      	1114.122       	1114.4468      	1114.3457      	1114.323       	1114.3357      	1114.3427      	1114.3132      	1114.4169      	1114.3169      	1114.4081      	1114.4493      	1114.3538      	1114.47        	1114.3619      	1114.7478      	1114.3989      	1114.4266      	1114.4292      	
1114.2976      	1114.304       	1114.2986      	1114.296       	1114.2218      	1114.1815      	1114.0099      	1113.9524      	1114.0095      	1114.4711      	1114.3375      	1114.3146      	1114.2368      	1114.3228      	1114.3079      	1114.2771      	1114.2361      	1114.3173      	1114.296       	1114.3256      	1114.2455      	1114.3217      	1114.2983      	1114.2683      	1114.2736      	1114.3282      	1114.1522      	1114.3905      	1114.2573      	1114.2208      	1114.2733      	1114.635       	1114.4493      	1114.4102      	1114.4288      	1114.3538      	1114.2964      	1114.3256      	1114.3251      	1114.3098      	1114.2595      	1114.2966      	1114.4591      	1114.2101      	1114.3722      	1114.45        	1114.4194      	1114.3887      	1114.2488      	1114.4335      	1114.4294      	1114.4376      	1114.3612      	1114.4154      	1114.2753      	1114.4474      	1114.3567      	1114.4038      	1114.3401      	1114.3607      	1114.2772      	1114.4199      	1114.3301      	1114.381       	1114.4062      	1114.4755      	1114.2898      	1114.3358      	1114.3689      	1114.2189      	1113.8878      	1113.9309      	1114.0579      	1114.424       	1114.3663      	1114.4484      	1114.3612      	1114.3563      	1114.3943      	1114.3322      	1114.2896      	1114.4335      	1114.3522      	1114.2847      	1114.4918      	1114.3717      	1114.4731      	1114.4517      	1114.4143      	1114.5028      	1114.4827      	1114.3231      	1114.5809      	1114.4481      	1114.523       	1114.4591      	1114.4873      	1114.4646      	1114.448       	1114.566       	
1114.0872      	1114.0796      	1114.068       	1114.0144      	1114.2168      	1113.9093      	1113.9086      	1113.6316      	1113.7285      	1114.2654      	1114.1038      	1114.1298      	1114.0687      	1114.1638      	1114.1074      	1114.0669      	1114.1443      	1114.0841      	1114.1492      	1114.0184      	1114.099       	1114.0337      	1114.1204      	1114.1467      	1114.0815      	1114.0381      	1114.142       	1114.0328      	1114.088       	1114.0481      	1113.9766      	1114.3582      	1114.331       	1114.1349      	1114.1442      	1114.136       	1114.0363      	1114.0507      	1114.0731      	1114.0278      	1114.0874      	1114.0906      	1114.0718      	1114.1289      	1114.1261      	1114.13        	1114.1404      	1114.1179      	1114.0515      	1113.9788      	1114.1271      	1114.2332      	1114.1466      	1114.1589      	1114.1157      	1114.2814      	1114.1486      	1114.216       	1114.1327      	1114.3077      	1114.1699      	1114.1682      	1114.2632      	1114.2306      	1114.237       	1114.1881      	1114.1809      	1114.1802      	1114.1813      	1114.0873      	1113.8654      	1113.8322      	1113.7649      	1114.2203      	1114.2136      	1114.1724      	1114.1711      	1114.1512      	1114.0878      	1114.1345      	1114.1277      	1114.1085      	1114.2996      	1114.27        	1114.2462      	1114.1675      	1114.2775      	1114.2179      	1114.251       	1114.2312      	1114.2343      	1114.2026      	1114.1594      	1114.3231      	1114.2533      	1114.1384      	1114.2097      	1114.2319      	1114.2358      	1114.1868      	
1113.8137      	1113.7896      	1113.755       	1113.771       	1113.6771      	1113.7305      	1113.6625      	1113.504       	1113.1522      	1113.9055      	1113.8567      	1113.7888      	1113.8351      	1113.7887      	1113.8076      	1113.8743      	1113.8573      	1113.7671      	1113.8817      	1113.771       	1113.8125      	1113.718       	1113.7643      	1113.7996      	1113.7214      	1113.721       	1113.7792      	1113.7217      	1113.7144      	1113.7361      	1113.7664      	1113.8425      	1114.1124      	1113.9454      	1113.9032      	1113.8481      	1113.7979      	1113.7386      	1113.7156      	1113.8718      	1113.818       	1113.7483      	1113.8253      	1113.6576      	1113.9904      	1113.914       	1113.843       	1113.9706      	1113.8489      	1113.9286      	1113.837       	1113.8933      	1113.9033      	1113.9143      	1113.86        	1113.845       	1113.9011      	1113.8651      	1113.7211      	1113.939       	1113.7909      	1113.775       	1113.8401      	1113.735       	1113.8087      	1113.8837      	1113.8434      	1113.8826      	1113.6841      	1113.9595      	1113.5618      	1113.3273      	1113.515       	1113.7603      	1113.8367      	1113.7979      	1113.8181      	1113.723       	1113.7291      	1113.8503      	1113.8151      	1113.823       	1113.7478      	1113.8712      	1113.8279      	1113.856       	1113.8856      	1113.8499      	1113.7736      	1113.8346      	1113.8914      	1113.9135      	1113.8374      	1113.8464      	1113.8518      	1113.8251      	1113.9033      	1113.9231      	1113.8458      	1113.8138      	
1113.597       	1113.5343      	1113.444       	1113.5099      	1113.6497      	1113.478       	1113.3699      	1113.3788      	1113.1681      	1113.4227      	1113.7059      	1113.6033      	1113.5342      	1113.6101      	1113.5844      	1113.4977      	1113.594       	1113.5872      	1113.4968      	1113.5813      	1113.6399      	1113.5532      	1113.5568      	1113.5645      	1113.5787      	1113.5704      	1113.5187      	1113.5588      	1113.5819      	1113.5326      	1113.6128      	1113.7307      	1113.8522      	1113.6953      	1113.6157      	1113.7036      	1113.487       	1113.63        	1113.6077      	1113.607       	1113.6117      	1113.6486      	1113.5603      	1113.6738      	1113.6642      	1113.6147      	1113.6399      	1113.6667      	1113.7153      	1113.6865      	1113.6179      	1113.7623      	1113.5768      	1113.6464      	1113.7162      	1113.5809      	1113.7926      	1113.7084      	1113.7         	1113.6594      	1113.6593      	1113.7491      	1113.6892      	1113.659       	1113.6603      	1113.7716      	1113.6066      	1113.5903      	1113.7063      	1113.6288      	1113.7058      	1113.187       	1113.296       	1113.2983      	1113.7799      	1113.7256      	1113.6884      	1113.6525      	1113.6935      	1113.8052      	1113.7166      	1113.651       	1113.7009      	1113.7333      	1113.7905      	1113.7794      	1113.7778      	1113.7322      	1113.8599      	1113.6938      	1113.802       	1113.8091      	1113.772       	1113.7688      	1113.8511      	1113.6116      	1113.7598      	1113.6425      	1113.741       	1113.7009      	
1113.5131      	1113.4976      	1113.372       	1113.4204      	1113.5963      	1113.462       	1113.3419      	1113.2137      	1113.2468      	1113.1448      	1113.6135      	1113.504       	1113.547       	1113.4918      	1113.5347      	1113.6116      	1113.5265      	1113.4663      	1113.4894      	1113.5033      	1113.4973      	1113.5802      	1113.4972      	1113.524       	1113.4968      	1113.4285      	1113.4761      	1113.4368      	1113.4337      	1113.4547      	1113.3761      	1113.699       	1113.7877      	1113.5806      	1113.5757      	1113.6284      	1113.4655      	1113.5555      	1113.528       	1113.5339      	1113.506       	1113.6123      	1113.5106      	1113.6621      	1113.452       	1113.6825      	1113.5688      	1113.614       	1113.5991      	1113.5385      	1113.6655      	1113.6028      	1113.6155      	1113.656       	1113.6049      	1113.5686      	1113.679       	1113.5913      	1113.6189      	1113.5502      	1113.7377      	1113.584       	1113.573       	1113.5269      	1113.7339      	1113.5525      	1113.539       	1113.5466      	1113.6669      	1113.575       	1113.5828      	1113.4159      	1113.3391      	1113.1036      	1113.7646      	1113.7664      	1113.6327      	1113.6957      	1113.6278      	1113.6741      	1113.7001      	1113.6829      	1113.5698      	1113.7814      	1113.687       	1113.725       	1113.7069      	1113.729       	1113.6736      	1113.7335      	1113.7117      	1113.654       	1113.6974      	1113.6642      	1113.7019      	1113.5619      	1113.546       	1113.7491      	1113.6896      	1113.7048      	
1113.7229      	1113.6736      	1113.6665      	1113.6848      	1113.6775      	1113.7477      	1113.6554      	1113.5488      	1113.1846      	1113.3911      	1113.8176      	1113.733       	1113.783       	1113.7384      	1113.676       	1113.684       	1113.7112      	1113.7368      	1113.7627      	1113.7013      	1113.748       	1113.6594      	1113.7056      	1113.8123      	1113.6265      	1113.7756      	1113.671       	1113.7926      	1113.6925      	1113.822       	1113.7096      	1113.8691      	1114.1312      	1113.9425      	1113.9272      	1113.9899      	1113.8448      	1113.8379      	1113.8147      	1113.8798      	1113.8645      	1113.8456      	1113.772       	1113.8081      	1113.832       	1113.7954      	1113.8268      	1113.8455      	1113.845       	1113.8508      	1113.7628      	1113.9238      	1113.8905      	1113.7983      	1113.8123      	1113.8738      	1113.8074      	1113.8191      	1113.8634      	1113.8708      	1113.6481      	1113.876       	1113.6735      	1113.7272      	1113.9338      	1113.8441      	1113.9158      	1113.7043      	1113.8763      	1113.9106      	1113.7847      	1113.8142      	1113.681       	1113.4626      	1113.9565      	1113.899       	1113.913       	1113.8964      	1113.8373      	1113.9979      	1113.882       	1114.0103      	1113.9408      	1113.9822      	1113.9946      	1113.9495      	1113.9536      	1114.0247      	1113.9949      	1113.9458      	1113.9518      	1113.983       	1114.006       	1113.913       	1113.951       	1113.966       	1113.9763      	1113.8735      	1113.9238      	1113.8947      	
1114.0454      	1114.0037      	1113.8899      	1113.964       	1114.11        	1114.0178      	1113.8511      	1113.9067      	1113.7317      	1113.4644      	1114.0415      	1114.0679      	1114.0503      	1114.12        	1114.0118      	1114.0886      	1114.0782      	1114.0139      	1114.0839      	1114.0978      	1114.0686      	1114.0027      	1114.0763      	1114.1042      	1114.1069      	1113.9641      	1114.0571      	1114.1434      	1114.062       	1114.0151      	1114.1025      	1114.0438      	1114.346       	1114.4387      	1114.2219      	1114.2279      	1114.2534      	1114.1747      	1114.1228      	1114.0864      	1114.273       	1114.2214      	1114.1099      	1114.1492      	1114.2406      	1114.2935      	1114.2332      	1114.1561      	1114.2108      	1114.2622      	1114.0913      	1114.19        	1114.208       	1114.1581      	1114.2064      	1114.1183      	1114.1501      	1114.1523      	1114.1016      	1114.2079      	1114.0234      	1114.2598      	1114.0769      	1114.0093      	1114.2129      	1114.1979      	1114.2166      	1114.0841      	1114.0077      	1114.1765      	1114.1663      	1114.016       	1113.9744      	1114.1356      	1114.2251      	1114.2018      	1114.2194      	1114.2129      	1114.2007      	1114.2332      	1114.3118      	1114.2404      	1114.3024      	1114.2728      	1114.2795      	1114.2325      	1114.2825      	1114.2433      	1114.2366      	1114.3055      	1114.3021      	1114.2922      	1114.2671      	1114.307       	1114.302       	1114.2019      	1114.2247      	1114.22        	1114.2421      	1114.1603      	
1114.0787      	1114.0582      	1113.9839      	1113.9552      	1114.2083      	1114.0441      	1113.9843      	1113.9352      	1113.8677      	1113.6218      	1113.8776      	1114.1483      	1114.0337      	1114.0908      	1114.065       	1114.0526      	1114.0848      	1114.0438      	1114.0438      	1114.1222      	1114.0891      	1114.047       	1114.0995      	1114.0858      	1114.0464      	1114.1241      	1114.0126      	1114.0872      	1114.0538      	1114.0803      	1114.0916      	1114.0311      	1114.2103      	1114.4153      	1114.2174      	1114.2496      	1114.253       	1114.1257      	1114.0887      	1114.0806      	1114.1902      	1114.128       	1114.1599      	1114.2318      	1114.1014      	1114.1675      	1114.2242      	1114.1993      	1114.2566      	1114.1421      	1114.1425      	1114.0874      	1114.2358      	1114.0251      	1114.1794      	1114.2072      	1113.9888      	1114.2314      	1114.0829      	1114.1125      	1113.9785      	1114.231       	1114.036       	1114.0027      	1114.012       	1113.9878      	1114.0576      	1113.9792      	1114.0332      	1114.0198      	1114.0553      	1114.0858      	1114.2987      	1114.1072      	1114.1532      	1114.155       	1114.2065      	1114.0656      	1114.1802      	1114.1934      	1114.2212      	1114.1785      	1114.1627      	1114.0674      	1114.2794      	1114.2413      	1114.1923      	1114.1824      	1114.1993      	1114.116       	1114.1796      	1114.0637      	1114.066       	1114.1476      	1114.1733      	1114.139       	1114.055       	1114.1864      	1114.0824      	1114.077       	
1113.8463      	1113.8928      	1113.8351      	1113.8198      	1113.7733      	1113.9166      	1113.9127      	1113.7664      	1113.5173      	1113.6296      	1113.3948      	1114.0051      	1113.9095      	1113.8419      	1113.8792      	1113.7545      	1113.905       	1113.818       	1113.8407      	1113.8087      	1113.8445      	1113.844       	1113.8118      	1113.8286      	1113.7756      	1113.8612      	1113.7869      	1113.8452      	1113.8488      	1113.7753      	1113.8439      	1113.7385      	1113.9132      	1114.2329      	1114.0342      	1114.0012      	1114.0334      	1113.8954      	1113.9084      	1113.8663      	1113.929       	1113.8766      	1113.9902      	1113.9109      	1113.9044      	1113.8765      	1113.8083      	1113.9215      	1113.8845      	1113.8765      	1113.7782      	1113.9237      	1114.0756      	1113.6832      	1113.977       	1113.8582      	1113.9113      	1113.7861      	1113.7701      	1113.8385      	1113.6825      	1113.846       	1113.7959      	1113.8169      	1113.768       	1113.6945      	1113.8801      	1114.0503      	1113.8633      	1113.9375      	1113.8241      	1113.8142      	1113.8992      	1113.864       	1113.9001      	1114.0051      	1113.7966      	1113.9055      	1113.9537      	1113.9404      	1113.9978      	1113.9006      	1113.8931      	1114.114       	1113.8943      	1113.9861      	1113.9559      	1113.8846      	1113.9921      	1113.976       	1113.9581      	1113.9468      	1113.904       	1113.9517      	1113.9354      	1113.9813      	1113.8732      	1113.9003      	1113.8894      	1113.8767      	
1113.801       	1113.8269      	1113.7949      	1113.7029      	1113.7397      	1113.839       	1113.7911      	1113.6941      	1113.5627      	1113.4153      	1113.4452      	1113.9244      	1113.8746      	1113.786       	1113.7463      	1113.8708      	1113.8461      	1113.7511      	1113.825       	1113.7853      	1113.8226      	1113.732       	1113.8062      	1113.7797      	1113.7344      	1113.7632      	1113.8018      	1113.76        	1113.7803      	1113.7499      	1113.83        	1113.7429      	1113.704       	1114.238       	1114.0278      	1113.9375      	1113.9521      	1113.9578      	1113.8872      	1113.8429      	1113.8717      	1113.9154      	1113.8251      	1113.8622      	1113.7374      	1113.9922      	1113.8136      	1113.6694      	1113.8798      	1113.9596      	1113.7603      	1113.868       	1113.8909      	1113.7604      	1113.815       	1113.8755      	1113.7537      	1113.7853      	1113.8688      	1113.8019      	1113.7598      	1113.9456      	1113.7771      	1113.8181      	1113.9978      	1113.9258      	1113.7373      	1113.9583      	1113.839       	1113.9215      	1113.8999      	1113.8708      	1113.9083      	1113.9226      	1113.9138      	1113.9465      	1113.9214      	1113.891       	1113.9397      	1113.9309      	1113.9294      	1114.064       	1113.9575      	1113.9006      	1114.0187      	1114.0435      	1113.9686      	1113.9396      	1113.8956      	1113.9369      	1113.9138      	1113.9327      	1113.8827      	1113.947       	1113.8892      	1113.8953      	1113.8612      	1113.872       	1113.9121      	1113.883       	
1113.887       	1113.8513      	1113.7848      	1113.8326      	1113.8845      	1113.7756      	1113.9708      	1113.774       	1113.6965      	1113.4017      	1113.4         	1113.9001      	1113.9032      	1113.8264      	1113.8191      	1113.842       	1113.7358      	1113.8612      	1113.8313      	1113.8015      	1113.83        	1113.7659      	1113.826       	1113.8146      	1113.8629      	1113.8457      	1113.7717      	1113.8188      	1113.8485      	1113.8148      	1113.8123      	1113.7948      	1113.8596      	1113.9695      	1114.1946      	1113.9883      	1113.9357      	1113.9412      	1113.8282      	1113.8502      	1113.8655      	1113.7944      	1113.9802      	1113.8134      	1113.7797      	1113.9805      	1113.8436      	1113.791       	1113.82        	1113.8937      	1113.6921      	1113.8743      	1113.9741      	1113.6792      	1113.6936      	1113.8677      	1113.776       	1113.7457      	1113.9381      	1113.9165      	1113.8446      	1113.939       	1113.8301      	1113.9009      	1113.832       	1113.7777      	1113.8505      	1113.9203      	1113.8922      	1113.8485      	1113.8579      	1113.8391      	1113.9464      	1113.8926      	1113.8553      	1113.906       	1113.9674      	1113.9061      	1113.9451      	1113.8708      	1113.9176      	1113.9325      	1113.9192      	1113.9316      	1113.8829      	1113.9592      	1113.8807      	1113.9237      	1113.8618      	1113.7136      	1113.9874      	1114.0012      	1113.7899      	1113.8849      	1113.8467      	1113.8423      	1113.8615      	1113.7966      	1113.817       	1113.8136      	
1113.731       	1113.7073      	1113.6721      	1113.6208      	1113.6853      	1113.7765      	1113.777       	1113.6854      	1113.5306      	1113.3999      	1113.1439      	1113.7722      	1113.7386      	1113.7284      	1113.7366      	1113.5555      	1113.8264      	1113.7546      	1113.7745      	1113.7174      	1113.6967      	1113.6395      	1113.6337      	1113.8118      	1113.7112      	1113.718       	1113.6981      	1113.5807      	1113.7839      	1113.727       	1113.6986      	1113.7085      	1113.7424      	1113.7357      	1114.0443      	1113.8044      	1113.7466      	1113.7941      	1113.7634      	1113.8389      	1113.7882      	1113.9155      	1113.7136      	1113.7615      	1113.5955      	1113.8433      	1113.6519      	1113.6829      	1113.6628      	1113.6141      	1113.6606      	1113.688       	1113.6265      	1113.8446      	1113.7825      	1113.923       	1113.7681      	1113.7599      	1113.7971      	1113.8252      	1113.7163      	1113.7756      	1113.7954      	1113.7166      	1113.8134      	1113.8546      	1113.6906      	1113.7277      	1113.8287      	1113.7427      	1113.8527      	1113.7362      	1113.8014      	1113.7982      	1113.7039      	1113.9077      	1113.7313      	1113.9861      	1113.6033      	1113.9093      	1113.8302      	1113.864       	1113.788       	1113.8584      	1113.8529      	1113.7932      	1113.8037      	1113.8774      	1113.7993      	1113.8063      	1113.8113      	1113.8566      	1113.7377      	1113.7198      	1113.7655      	1113.7124      	1113.8174      	1113.6438      	1113.6937      	1113.6238      	
1113.8247      	1113.7728      	1113.7899      	1113.8217      	1113.8606      	1113.8243      	1113.8829      	1113.6892      	1113.8024      	1113.6133      	1113.3856      	1113.6891      	1113.9476      	1113.8348      	1113.6981      	1113.8448      	1113.8689      	1113.7352      	1113.7946      	1113.826       	1113.8401      	1113.7333      	1113.7609      	1113.8088      	1113.7267      	1113.7397      	1113.7661      	1113.8016      	1113.7417      	1113.7574      	1113.698       	1113.788       	1113.8119      	1113.72        	1113.8898      	1113.8173      	1114.0676      	1113.9346      	1113.763       	1113.8351      	1113.8423      	1113.8336      	1113.8085      	1113.5342      	1113.8876      	1113.6774      	1113.804       	1113.7792      	1113.6012      	1113.671       	1113.9557      	1113.852       	1113.8026      	1113.8171      	1113.8175      	1113.666       	1113.9005      	1113.8048      	1113.7823      	1113.8134      	1113.7787      	1113.743       	1113.8562      	1113.6711      	1113.824       	1113.836       	1113.8158      	1113.8372      	1113.7264      	1113.8019      	1113.8228      	1113.8223      	1113.824       	1113.8243      	1113.8341      	1113.9949      	1113.7917      	1113.673       	1113.9585      	1113.8308      	1113.8032      	1113.8763      	1113.9132      	1113.7593      	1113.8165      	1113.8691      	1113.7969      	1113.8599      	1113.8318      	1113.6875      	1113.8728      	1113.8663      	1113.7843      	1113.8506      	1113.7421      	1113.7576      	1113.826       	1113.7876      	1113.7618      	1113.7578      	
1113.7449      	1113.6864      	1113.5626      	1113.6946      	1113.7715      	1113.7604      	1113.666       	1113.7817      	1113.544       	1113.4688      	1113.3544      	1113.3303      	1113.845       	1113.7834      	1113.6666      	1113.7823      	1113.7345      	1113.6239      	1113.6377      	1113.826       	1113.6838      	1113.7278      	1113.5441      	1113.7913      	1113.707       	1113.5782      	1113.7268      	1113.657       	1113.7206      	1113.5431      	1113.7186      	1113.67        	1113.6619      	1113.6632      	1113.6552      	1113.6691      	1113.9678      	1113.6362      	1113.6888      	1113.6561      	1113.6593      	1113.6483      	1113.6981      	1113.6091      	1113.6952      	1113.594       	1113.823       	1113.7545      	1113.7603      	1113.7218      	1113.7423      	1113.6523      	1113.8212      	1113.595       	1113.8239      	1113.6794      	1113.6912      	1113.711       	1113.739       	1113.6957      	1113.7021      	1113.7417      	1113.6877      	1113.71        	1113.7063      	1113.6981      	1113.7087      	1113.7416      	1113.7108      	1113.7031      	1113.6658      	1113.7427      	1113.7538      	1113.7461      	1113.7382      	1113.7495      	1113.8022      	1113.6918      	1113.7224      	1113.8069      	1113.6958      	1113.8013      	1113.7308      	1113.7054      	1113.7603      	1113.6274      	1113.77        	1113.7495      	1113.6187      	1113.6964      	1113.6896      	1113.6718      	1113.66        	1113.8293      	1113.6404      	1113.6011      	1113.7883      	1113.6495      	1113.7346      	1113.628       	
1113.6675      	1113.6626      	1113.6726      	1113.6667      	1113.65        	1113.671       	1113.7236      	1113.613       	1113.62        	1113.5077      	1113.4194      	1113.366       	1113.5907      	1113.7229      	1113.6729      	1113.6451      	1113.6857      	1113.7042      	1113.6814      	1113.6409      	1113.636       	1113.7593      	1113.6343      	1113.6829      	1113.6614      	1113.6708      	1113.5427      	1113.7755      	1113.6702      	1113.6328      	1113.51        	1113.6986      	1113.6606      	1113.6658      	1113.6222      	1113.7278      	1113.5906      	1113.6995      	1113.5897      	1113.7761      	1113.6233      	1113.7352      	1113.6489      	1113.8114      	1113.718       	1113.6674      	1113.6588      	1113.7078      	1113.7325      	1113.7206      	1113.698       	1113.7479      	1113.6858      	1113.6619      	1113.6805      	1113.7327      	1113.676       	1113.6996      	1113.6825      	1113.7166      	1113.633       	1113.7393      	1113.673       	1113.6525      	1113.8041      	1113.6914      	1113.7336      	1113.6831      	1113.7628      	1113.7383      	1113.7799      	1113.6166      	1113.8384      	1113.6327      	1113.6609      	1113.8641      	1113.7719      	1113.7821      	1113.5499      	1113.8242      	1113.7742      	1113.7239      	1113.7561      	1113.6925      	1113.7117      	1113.7648      	1113.6095      	1113.5698      	1113.6997      	1113.6143      	1113.6411      	1113.6608      	1113.6046      	1113.5535      	1113.6847      	1113.6638      	1113.6019      	1113.5491      	1113.6677      	1113.5005      	
1113.6975      	1113.7146      	1113.696       	1113.6737      	1113.7498      	1113.7489      	1113.7538      	1113.714       	1113.5964      	1113.5884      	1113.548       	1113.4332      	1113.4402      	1113.829       	1113.6562      	1113.806       	1113.6943      	1113.6863      	1113.7617      	1113.6788      	1113.7466      	1113.7091      	1113.7076      	1113.7272      	1113.747       	1113.7664      	1113.654       	1113.7249      	1113.7216      	1113.7202      	1113.706       	1113.7052      	1113.6652      	1113.7472      	1113.6476      	1113.827       	1113.76        	1113.8174      	1113.7845      	1113.7942      	1113.7343      	1113.7557      	1113.7905      	1113.7942      	1113.7863      	1113.7456      	1113.7415      	1113.8628      	1113.7443      	1113.7286      	1113.8429      	1113.8026      	1113.7068      	1113.7839      	1113.6584      	1113.8052      	1113.7632      	1113.7694      	1113.7723      	1113.7732      	1113.7452      	1113.7842      	1113.8074      	1113.7252      	1113.879       	1113.7362      	1113.8381      	1113.7723      	1113.8484      	1113.8796      	1113.7831      	1113.823       	1113.8418      	1113.8215      	1113.806       	1113.8925      	1113.8691      	1113.8618      	1113.7617      	1113.9502      	1113.8474      	1113.8002      	1113.7944      	1113.9025      	1113.7782      	1113.8517      	1113.8143      	1113.8179      	1113.8451      	1113.7698      	1113.8357      	1113.7974      	1113.7727      	1113.834       	1113.729       	1113.7987      	1113.7896      	1113.8065      	1113.5616      	1113.9397      	
1113.9038      	1113.9286      	1113.924       	1113.9049      	1113.9146      	1113.9216      	1113.9587      	1113.9377      	1113.8759      	1113.6556      	1113.8002      	1113.466       	1113.5271      	1114.0216      	1113.9509      	1113.948       	1113.8536      	1113.8739      	1113.904       	1113.9059      	1113.9005      	1113.8695      	1113.8542      	1113.913       	1113.9694      	1113.8982      	1113.8608      	1113.8961      	1113.8999      	1113.9343      	1113.8315      	1113.9874      	1113.9485      	1113.9786      	1113.8511      	1114.0305      	1113.949       	1113.8977      	1113.9634      	1113.9976      	1114.0106      	1113.971       	1114.0159      	1114.0066      	1114.0217      	1113.994       	1113.9722      	1114.0613      	1113.9794      	1114.0067      	1113.9269      	1114.0078      	1113.9526      	1113.9852      	1113.9707      	1113.9834      	1113.9822      	1113.992       	1113.898       	1114.0438      	1113.9523      	1113.9445      	1113.979       	1113.9523      	1114.0087      	1114           	1113.9731      	1114.0292      	1114.0123      	1114.0203      	1114.049       	1114.0269      	1114.0271      	1114.0392      	1113.9558      	1114.0254      	1113.9822      	1113.9482      	1114.0801      	1114.0377      	1114.01        	1113.9883      	1113.9825      	1114.0226      	1114.0209      	1113.9784      	1113.9731      	1114.02        	1113.9819      	1113.9592      	1113.9612      	1114.0134      	1113.9094      	1113.8484      	1113.941       	1113.948       	1114.0132      	1113.9783      	1113.9283      	1113.9181      	
1114.0691      	1114.0376      	1113.9849      	1114.0448      	1114.0603      	1113.9927      	1113.9767      	1113.9752      	1114.0917      	1114.0437      	1113.769       	1113.6769      	1113.6228      	1113.977       	1114.0789      	1114.0546      	1114.0287      	1113.8713      	1114.1166      	1114.0339      	1113.9746      	1113.9475      	1114.0084      	1114.0562      	1113.9865      	1113.9526      	1114.0549      	1113.9784      	1113.9849      	1114.0469      	1113.989       	1113.9415      	1114.0253      	1113.9763      	1114.1587      	1113.9836      	1114.1         	1114.007       	1114.0076      	1114.0665      	1114.069       	1113.9838      	1114.0994      	1114.0232      	1113.9933      	1114.0609      	1114.0583      	1114.003       	1114.0819      	1114.0457      	1114.1395      	1114.1056      	1114.065       	1114.0519      	1114.0327      	1114.0157      	1114.0111      	1113.9978      	1114.0613      	1114.0151      	1113.99        	1114.069       	1114.0402      	1114.067       	1113.9897      	1114.0161      	1114.0759      	1114.065       	1114.0985      	1114.017       	1114.1006      	1114.1062      	1114.0312      	1114.0737      	1113.9662      	1114.0999      	1114.0724      	1114.0767      	1114.0664      	1114.1353      	1114.1047      	1114.0317      	1113.9764      	1114.1299      	1113.9982      	1114.0079      	1114.0802      	1114.0704      	1114.0704      	1114.0349      	1114.0302      	1114.0385      	1113.9886      	1113.9681      	1113.9817      	1113.9001      	1114.0197      	1113.8948      	1113.9525      	1113.9415      	
1114.1746      	1114.1112      	1114.0415      	1114.007       	1114.1063      	1114.0281      	1114.0408      	1114.1135      	1114.1233      	1114.1442      	1114.1206      	1113.7739      	1113.8942      	1113.9255      	1114.2104      	1114.1257      	1114.203       	1114.1466      	1114.1646      	1114.1844      	1114.1476      	1114.1516      	1114.1415      	1114.1072      	1114.1451      	1114.0887      	1114.1332      	1114.0608      	1114.1484      	1114.099       	1114.144       	1114.1171      	1114.1354      	1114.1473      	1114.1292      	1114.1976      	1114.1323      	1114.187       	1114.1951      	1114.1643      	1114.1697      	1114.1217      	1114.1431      	1114.167       	1114.1726      	1114.1595      	1114.1437      	1114.1825      	1114.1262      	1114.1561      	1114.1327      	1114.1548      	1114.1282      	1114.1581      	1114.1697      	1114.1212      	1114.1361      	1114.2085      	1114.1321      	1114.1912      	1114.1583      	1114.2043      	1114.1571      	1114.153       	1114.2538      	1114.2173      	1114.2218      	1114.2324      	1114.2238      	1114.2815      	1114.2307      	1114.2817      	1114.2479      	1114.254       	1114.2003      	1114.2465      	1114.2053      	1114.2058      	1114.1744      	1114.231       	1114.1716      	1114.1207      	1114.1986      	1114.0723      	1114.1938      	1114.1234      	1114.178       	1114.1476      	1114.1105      	1113.9297      	1114.221       	1114.1615      	1114.0835      	1114.1622      	1114.0885      	1114.0864      	1114.1077      	1114.0776      	1114.1078      	1114.0996      	
1114.0785      	1114.1849      	1114.1298      	1113.9862      	1113.9902      	1114.0594      	1114.0164      	1114.0776      	1114.2382      	1114.1023      	1114.0039      	1114.0015      	1113.7593      	1114.0968      	1114.2081      	1114.1293      	1114.1688      	1114.1824      	1114.1323      	1114.1171      	1114.0892      	1114.1453      	1114.0446      	1114.1116      	1114.073       	1114.0713      	1114.1046      	1114.138       	1114.0212      	1114.1384      	1114.1812      	1114.1517      	1114.0934      	1114.1486      	1114.1382      	1114.1632      	1114.1753      	1114.1682      	1114.201       	1114.2218      	1114.1466      	1114.1875      	1114.1094      	1114.1445      	1114.1697      	1114.1716      	1114.1233      	1114.1132      	1114.1665      	1114.1708      	1114.0767      	1114.1829      	1114.1251      	1114.1261      	1114.1307      	1114.1072      	1114.0507      	1114.219       	1114.1913      	1114.1595      	1114.1637      	1114.1404      	1114.1599      	1114.1399      	1114.1737      	1114.1669      	1114.1431      	1114.1378      	1114.1838      	1114.089       	1114.1945      	1114.1737      	1114.2137      	1114.055       	1114.2584      	1114.1024      	1114.1519      	1114.1704      	1114.1583      	1114.1453      	1114.177       	1114.134       	1114.1262      	1114.1086      	1114.0677      	1114.1365      	1114.1167      	1114.1228      	1114.1001      	1114.056       	1114.0603      	1114.0989      	1114.1136      	1114.1019      	1114.0758      	1114.0715      	1114.0532      	1114.0546      	1114.0945      	1114.1116      	
1114.1687      	1114.1953      	1114.1437      	1114.1663      	1113.9384      	1114.041       	1114.0562      	1114.0308      	1114.0577      	1114.0061      	1114.1316      	1114.0706      	1113.7375      	1114.1964      	1114.1439      	1114.1193      	1114.038       	1114.1019      	1114.1208      	1114.0764      	1114.1007      	1114.0596      	1114.0553      	1114.0851      	1114.074       	1114.0481      	1114.056       	1114.0793      	1114.1104      	1114.0819      	1114.0187      	1114.1311      	1114.0741      	1114.0295      	1114.1749      	1114.0421      	1114.1135      	1114.0913      	1114.1405      	1114.1001      	1114.065       	1114.0984      	1114.0981      	1114.1096      	1114.0527      	1114.1185      	1114.0923      	1114.0581      	1113.9918      	1114.1348      	1114.0499      	1114.0083      	1114.0012      	1114.1439      	1113.9976      	1114.1232      	1114.0911      	1114.0278      	1114.0446      	1114.079       	1114.0227      	1114.0673      	1114.0416      	1114.0192      	1114.1112      	1114.0925      	1114.1165      	1114.0786      	1114.0306      	1114.0636      	1114.0652      	1114.058       	1114.1345      	1113.9951      	1114.2023      	1114.076       	1114.0676      	1114.1241      	1114.1343      	1114.0361      	1114.045       	1114.0221      	1113.9844      	1113.9476      	1114.0253      	1113.9839      	1113.9702      	1114.0016      	1113.8989      	1113.9594      	1113.904       	1114.003       	1113.8845      	1113.996       	1113.8945      	1113.9319      	1113.998       	1113.9049      	1113.8857      	1113.9543      	
1113.9819      	1113.9891      	1113.9695      	1113.8837      	1113.8304      	1113.8226      	1113.9269      	1113.7781      	1113.8354      	1113.7504      	1113.7678      	1113.8729      	1113.9729      	1113.8541      	1113.8835      	1113.8713      	1113.7971      	1113.9357      	1113.7954      	1113.8113      	1113.7991      	1113.8324      	1113.8198      	1113.8784      	1113.7498      	1113.8378      	1113.7743      	1113.7825      	1113.8291      	1113.7251      	1113.8772      	1113.8398      	1113.853       	1113.8612      	1113.8724      	1113.9006      	1113.7704      	1113.8754      	1113.783       	1113.859       	1113.8638      	1113.863       	1113.7866      	1113.7817      	1113.822       	1113.8068      	1113.8007      	1113.8143      	1113.8444      	1113.7753      	1113.8025      	1113.791       	1113.7686      	1113.7534      	1113.719       	1113.7644      	1113.8522      	1113.8348      	1113.7839      	1113.8307      	1113.79        	1113.8123      	1113.8029      	1113.8533      	1113.8651      	1113.8242      	1113.7876      	1113.8322      	1113.8868      	1113.8119      	1113.9065      	1113.7837      	1113.9396      	1113.7914      	1113.7869      	1113.7498      	1113.8684      	1113.8472      	1113.657       	1113.922       	1113.7042      	1113.7585      	1113.796       	1113.8142      	1113.7556      	1113.7582      	1113.8453      	1113.7554      	1113.7631      	1113.8055      	1113.7339      	1113.7449      	1113.782       	1113.7128      	1113.8939      	1113.7384      	1113.7109      	1113.7844      	1113.7845      	1113.7197      	
1113.8597      	1113.8835      	1113.8511      	1113.7004      	1113.6951      	1113.7006      	1113.6841      	1113.9106      	1113.8849      	1113.9104      	1113.875       	1113.8728      	1113.9001      	1113.813       	1113.8477      	1113.8372      	1113.9194      	1113.8441      	1113.8389      	1113.8784      	1113.8265      	1113.8832      	1113.8131      	1113.8418      	1113.8124      	1113.9017      	1113.8032      	1113.813       	1114.0054      	1113.8553      	1113.9148      	1113.8387      	1113.925       	1113.8513      	1113.9257      	1113.964       	1113.8798      	1113.9453      	1113.9786      	1113.8435      	1113.9286      	1113.9359      	1113.9108      	1113.9688      	1113.9338      	1113.9061      	1113.9458      	1113.8915      	1113.929       	1113.8544      	1113.9242      	1113.9369      	1113.9879      	1113.8964      	1113.883       	1113.9463      	1113.88        	1113.9557      	1113.968       	1113.8661      	1113.8904      	1113.997       	1113.9414      	1113.9542      	1113.991       	1113.9438      	1113.9587      	1114.0535      	1113.9141      	1114.0096      	1114.0441      	1113.9661      	1113.9813      	1113.9037      	1113.9637      	1113.9584      	1113.915       	1113.9119      	1114.0219      	1113.8744      	1113.9529      	1113.8947      	1113.9509      	1113.9207      	1113.8745      	1113.9553      	1113.9103      	1113.9148      	1113.7838      	1113.8881      	1113.9612      	1113.9224      	1113.8817      	1113.9077      	1113.8654      	1113.791       	1113.952       	1113.9026      	1113.8755      	1113.9927      	
1114.1283      	1114.078       	1114.0802      	1113.9806      	1114.2467      	1114.1655      	1114.2009      	1114.1459      	1114.1533      	1114.1693      	1114.156       	1114.1526      	1114.0923      	1114.175       	1114.0865      	1114.1964      	1114.0978      	1114.1116      	1114.0425      	1114.0983      	1114.0636      	1114.125       	1114.1138      	1114.0519      	1114.1066      	1114.0787      	1114.1141      	1114.1166      	1114.1233      	1114.1163      	1114.1128      	1114.1647      	1114.1495      	1114.1472      	1114.0985      	1114.2046      	1114.1123      	1114.2336      	1114.225       	1114.1707      	1114.2314      	1114.1216      	1114.1521      	1114.1766      	1114.1222      	1114.1573      	1114.1323      	1114.1467      	1114.1399      	1114.1368      	1114.1315      	1114.1609      	1114.2058      	1114.1063      	1114.1516      	1114.0907      	1114.2173      	1114.1589      	1114.1903      	1114.1964      	1114.1996      	1114.1708      	1114.1572      	1114.1797      	1114.2257      	1114.158       	1114.1875      	1114.1653      	1114.185       	1114.198       	1114.2175      	1114.1981      	1114.2126      	1114.0441      	1114.2421      	1114.2117      	1114.1484      	1114.1946      	1114.1962      	1114.1942      	1114.1405      	1114.1218      	1114.1327      	1114.1321      	1114.1877      	1114.1053      	1114.1512      	1114.1282      	1114.1245      	1114.1365      	1114.1569      	1114.1118      	1114.1622      	1114.0906      	1114.1975      	1114.148       	1114.1157      	1114.1841      	1114.0483      	1114.1544      	
1114.3334      	1114.3265      	1114.3362      	1114.3323      	1114.3445      	1114.2714      	1114.3585      	1114.3816      	1114.3436      	1114.2317      	1114.2258      	1114.3563      	1114.2971      	1114.2924      	1114.2798      	1114.3291      	1114.3281      	1114.345       	1114.3125      	1114.2938      	1114.3254      	1114.3439      	1114.1978      	1114.3627      	1114.281       	1114.4058      	1114.2769      	1114.3589      	1114.301       	1114.2808      	1114.4019      	1114.2579      	1114.4277      	1114.2897      	1114.3373      	1114.4017      	1114.3243      	1114.3099      	1114.455       	1114.3973      	1114.3727      	1114.3816      	1114.3715      	1114.3524      	1114.2897      	1114.2909      	1114.3368      	1114.3542      	1114.3912      	1114.312       	1114.4315      	1114.3694      	1114.3397      	1114.3962      	1114.3739      	1114.3779      	1114.3396      	1114.3419      	1114.4324      	1114.3566      	1114.4221      	1114.3923      	1114.426       	1114.389       	1114.3723      	1114.4177      	1114.4106      	1114.3546      	1114.3665      	1114.4021      	1114.3693      	1114.294       	1114.3093      	1114.4064      	1114.4412      	1114.3584      	1114.363       	1114.3422      	1114.3658      	1114.3595      	1114.3203      	1114.3915      	1114.319       	1114.3396      	1114.321       	1114.3324      	1114.3402      	1114.3105      	1114.354       	1114.2509      	1114.3488      	1114.2598      	1114.3478      	1114.3043      	1114.2544      	1114.352       	1114.3054      	1114.3147      	1114.242       	1114.2628      	
1114.5516      	1114.5784      	1114.59        	1114.5072      	1114.4883      	1114.6011      	1114.4786      	1114.4783      	1114.5444      	1114.4387      	1114.4904      	1114.5255      	1114.5051      	1114.392       	1114.5374      	1114.5193      	1114.4498      	1114.5222      	1114.5283      	1114.4292      	1114.4978      	1114.488       	1114.5206      	1114.4729      	1114.4822      	1114.5098      	1114.5234      	1114.4714      	1114.5032      	1114.5204      	1114.5374      	1114.4404      	1114.3866      	1114.5842      	1114.4807      	1114.5284      	1114.502       	1114.4987      	1114.5529      	1114.5714      	1114.5009      	1114.5212      	1114.468       	1114.4996      	1114.4863      	1114.4188      	1114.5634      	1114.4755      	1114.3765      	1114.288       	1114.5038      	1114.5164      	1114.5178      	1114.524       	1114.4983      	1114.4849      	1114.4832      	1114.4353      	1114.5011      	1114.4642      	1114.5112      	1114.4796      	1114.4614      	1114.4843      	1114.4988      	1114.4749      	1114.5056      	1114.4717      	1114.4553      	1114.5125      	1114.4832      	1114.5028      	1114.5044      	1114.4928      	1114.466       	1114.4834      	1114.4445      	1114.4847      	1114.4514      	1114.4581      	1114.4402      	1114.4989      	1114.3873      	1114.4493      	1114.3678      	1114.4845      	1114.4506      	1114.4873      	1114.421       	1114.468       	1114.4396      	1114.4967      	1114.4376      	1114.4849      	1114.3789      	1114.4457      	1114.4814      	1114.4218      	1114.4777      	1114.4669      	
1114.5925      	1114.5128      	1114.5344      	1114.5292      	1114.5669      	1114.5242      	1114.4316      	1114.5529      	1114.5775      	1114.5311      	1114.5139      	1114.4958      	1114.5529      	1114.5424      	1114.5531      	1114.5391      	1114.446       	1114.59        	1114.466       	1114.5709      	1114.4602      	1114.3986      	1114.5653      	1114.5159      	1114.5491      	1114.4763      	1114.5546      	1114.5012      	1114.5051      	1114.5856      	1114.5687      	1114.5571      	1114.513       	1114.5632      	1114.5815      	1114.5503      	1114.5244      	1114.5369      	1114.5266      	1114.5415      	1114.529       	1114.6237      	1114.567       	1114.4841      	1114.4908      	1114.5419      	1114.4373      	1114.59        	1114.4917      	1114.4283      	1114.3905      	1114.5471      	1114.5245      	1114.4906      	1114.4614      	1114.5428      	1114.468       	1114.565       	1114.508       	1114.5168      	1114.5231      	1114.5089      	1114.5157      	1114.5195      	1114.5657      	1114.52        	1114.4878      	1114.508       	1114.5247      	1114.5021      	1114.5618      	1114.5378      	1114.5188      	1114.5388      	1114.4436      	1114.5583      	1114.4669      	1114.367       	1114.5903      	1114.543       	1114.5157      	1114.5314      	1114.5369      	1114.494       	1114.5565      	1114.5455      	1114.5171      	1114.4271      	1114.5944      	1114.4956      	1114.5499      	1114.5217      	1114.5287      	1114.4492      	1114.4796      	1114.5128      	1114.5411      	1114.5444      	1114.5747      	1114.4985      	
1114.5558      	1114.4906      	1114.4933      	1114.5919      	1114.5498      	1114.634       	1114.5717      	1114.5079      	1114.507       	1114.4832      	1114.5671      	1114.5438      	1114.528       	1114.5259      	1114.5488      	1114.4816      	1114.5588      	1114.4594      	1114.4893      	1114.4783      	1114.4445      	1114.5399      	1114.5651      	1114.503       	1114.506       	1114.5516      	1114.5513      	1114.4904      	1114.5286      	1114.4581      	1114.5896      	1114.553       	1114.5522      	1114.5345      	1114.5463      	1114.5444      	1114.5408      	1114.4933      	1114.5529      	1114.5051      	1114.521       	1114.5554      	1114.5226      	1114.4908      	1114.5499      	1114.4788      	1114.539       	1114.4623      	1114.4598      	1114.4734      	1114.4431      	1114.4403      	1114.4598      	1114.5422      	1114.4719      	1114.5001      	1114.4523      	1114.5378      	1114.458       	1114.5498      	1114.4849      	1114.5717      	1114.533       	1114.4852      	1114.5277      	1114.4741      	1114.4607      	1114.4746      	1114.4636      	1114.4396      	1114.5511      	1114.48        	1114.4855      	1114.4738      	1114.4774      	1114.4375      	1114.4384      	1114.4283      	1114.422       	1114.3684      	1114.4888      	1114.4149      	1114.4319      	1114.4453      	1114.3292      	1114.4734      	1114.3807      	1114.4553      	1114.3368      	1114.384       	1114.4435      	1114.4108      	1114.4027      	1114.5126      	1114.4991      	1114.4342      	1114.4333      	1114.4576      	1114.4884      	1114.447       	
1114.5546      	1114.5182      	1114.5079      	1114.5474      	1114.5176      	1114.5278      	1114.5665      	1114.5087      	1114.5173      	1114.4338      	1114.4819      	1114.5898      	1114.4601      	1114.504       	1114.4598      	1114.4764      	1114.4673      	1114.5435      	1114.4537      	1114.4962      	1114.5195      	1114.4891      	1114.441       	1114.5438      	1114.4462      	1114.5261      	1114.4785      	1114.5245      	1114.4652      	1114.4973      	1114.5212      	1114.521       	1114.4894      	1114.5444      	1114.4381      	1114.5686      	1114.4855      	1114.5071      	1114.5654      	1114.4465      	1114.4325      	1114.5894      	1114.4987      	1114.4333      	1114.5037      	1114.4188      	1114.4175      	1114.528       	1114.4839      	1114.5083      	1114.4243      	1114.5002      	1114.5527      	1114.4874      	1114.3676      	1114.5422      	1114.4579      	1114.6053      	1114.4874      	1114.5427      	1114.4988      	1114.5212      	1114.578       	1114.5032      	1114.492       	1114.4949      	1114.5396      	1114.4833      	1114.4862      	1114.5173      	1114.5171      	1114.4845      	1114.3953      	1114.5204      	1114.4586      	1114.4702      	1114.5092      	1114.4329      	1114.4966      	1114.4828      	1114.4858      	1114.4954      	1114.4742      	1114.5322      	1114.5164      	1114.4865      	1114.4634      	1114.5623      	1114.4846      	1114.5498      	1114.5118      	1114.5623      	1114.5504      	1114.5383      	1114.504       	1114.529       	1114.5513      	1114.4963      	1114.6024      	1114.4753      	
1114.6884      	1114.6559      	1114.6536      	1114.6671      	1114.6754      	1114.7272      	1114.7084      	1114.7208      	1114.6631      	1114.6926      	1114.6857      	1114.6042      	1114.6471      	1114.652       	1114.6102      	1114.6624      	1114.6628      	1114.6233      	1114.6506      	1114.689       	1114.6505      	1114.6555      	1114.6846      	1114.6672      	1114.6836      	1114.7222      	1114.702       	1114.7247      	1114.7023      	1114.6763      	1114.6866      	1114.7195      	1114.7216      	1114.6907      	1114.7499      	1114.6791      	1114.6959      	1114.7437      	1114.688       	1114.717       	1114.7024      	1114.7192      	1114.7097      	1114.6512      	1114.6965      	1114.584       	1114.6881      	1114.703       	1114.6716      	1114.6802      	1114.7177      	1114.6533      	1114.7355      	1114.7031      	1114.6713      	1114.6163      	1114.6846      	1114.6975      	1114.7794      	1114.7006      	1114.6691      	1114.696       	1114.7463      	1114.7601      	1114.6552      	1114.6648      	1114.7325      	1114.6678      	1114.697       	1114.6935      	1114.6677      	1114.5881      	1114.6572      	1114.6652      	1114.7133      	1114.615       	1114.7301      	1114.5338      	1114.7979      	1114.6482      	1114.6659      	1114.7006      	1114.6792      	1114.7072      	1114.6954      	1114.69        	1114.6056      	1114.7837      	1114.635       	1114.631       	1114.7518      	1114.6893      	1114.6945      	1114.6617      	1114.7344      	1114.6467      	1114.5452      	1114.872       	1114.6707      	1114.6335      	
1114.9753      	1114.936       	1114.9283      	1114.9489      	1114.9768      	1114.9119      	1114.9431      	1114.9149      	1114.9453      	1114.8972      	1114.914       	1114.9631      	1114.9011      	1114.9329      	1114.9456      	1114.9266      	1114.9358      	1114.9249      	1114.9568      	1114.938       	1114.9644      	1114.9557      	1114.9402      	1114.9861      	1114.9468      	1114.9028      	1114.9374      	1115.0072      	1114.9518      	1114.995       	1115.0228      	1114.951       	1115.0164      	1115.0199      	1114.9478      	1115.0575      	1114.9957      	1114.9637      	1114.9976      	1114.9292      	1115.0345      	1115.0131      	1114.969       	1115.0734      	1114.9143      	1114.9523      	1115.009       	1115.0657      	1114.9927      	1114.966       	1114.9994      	1114.9916      	1115.0499      	1115.042       	1115.0237      	1115.092       	1115.0204      	1115.0474      	1115.129       	1114.9624      	1115.0314      	1115.0266      	1115.0044      	1114.9691      	1115.0608      	1114.9415      	1114.952       	1115.0117      	1115.0315      	1115.0833      	1115.0076      	1114.9548      	1114.9961      	1115.0054      	1115.0261      	1114.9175      	1115.0416      	1114.831       	1115.0779      	1114.9716      	1115.0933      	1114.9375      	1115.019       	1114.9865      	1115.0667      	1114.9478      	1115.0344      	1115.0712      	1114.9581      	1115.0369      	1115.0939      	1114.995       	1114.8267      	1115.1655      	1115.1101      	1115.0724      	1115.062       	1115.0881      	1115.1649      	1115.0754      	
1115.2931      	1115.2882      	1115.2267      	1115.2185      	1115.2268      	1115.232       	1115.2806      	1115.2695      	1115.2626      	1115.3126      	1115.2555      	1115.1936      	1115.3173      	1115.2306      	1115.1793      	1115.3108      	1115.2577      	1115.2516      	1115.2502      	1115.2264      	1115.2828      	1115.2524      	1115.3119      	1115.2246      	1115.2861      	1115.3218      	1115.3104      	1115.284       	1115.3391      	1115.2587      	1115.3658      	1115.2882      	1115.2742      	1115.378       	1115.3096      	1115.3141      	1115.2805      	1115.3062      	1115.3042      	1115.2825      	1115.2955      	1115.3126      	1115.3048      	1115.3198      	1115.2927      	1115.313       	1115.2585      	1115.2916      	1115.366       	1115.2861      	1115.323       	1115.3544      	1115.3588      	1115.3243      	1115.3928      	1115.34        	1115.2963      	1115.3071      	1115.3239      	1115.2416      	1115.3856      	1115.3485      	1115.3762      	1115.3094      	1115.3397      	1115.2909      	1115.3221      	1115.2418      	1115.2681      	1115.2714      	1115.3046      	1115.2466      	1115.3055      	1115.1198      	1115.3679      	1115.207       	1115.0872      	1115.0272      	1114.9089      	1115.4373      	1115.3041      	1115.3256      	1115.3489      	1115.2938      	1115.3015      	1115.2296      	1115.2534      	1115.2822      	1115.311       	1115.27        	1115.2924      	1115.3192      	1115.3124      	1115.3622      	1115.2993      	1115.3362      	1115.3322      	1115.3063      	1115.3397      	1115.3325      	
1115.4298      	1115.4088      	1115.4379      	1115.4324      	1115.4232      	1115.4285      	1115.4055      	1115.4739      	1115.4567      	1115.4474      	1115.4507      	1115.4114      	1115.4198      	1115.4028      	1115.367       	1115.3931      	1115.3783      	1115.4406      	1115.4812      	1115.5061      	1115.3982      	1115.413       	1115.5558      	1115.4683      	1115.4191      	1115.502       	1115.4944      	1115.4341      	1115.5508      	1115.452       	1115.4618      	1115.4285      	1115.4426      	1115.4293      	1115.3009      	1115.6024      	1115.4099      	1115.4607      	1115.3923      	1115.3933      	1115.5161      	1115.3737      	1115.4312      	1115.4047      	1115.398       	1115.4924      	1115.4314      	1115.4423      	1115.344       	1115.503       	1115.4325      	1115.4159      	1115.453       	1115.4163      	1115.4165      	1115.4324      	1115.3857      	1115.4025      	1115.3912      	1115.3677      	1115.4115      	1115.4199      	1115.3481      	1115.3293      	1115.426       	1115.2434      	1115.3364      	1115.3982      	1115.4703      	1115.3456      	1115.3954      	1115.463       	1115.5051      	1115.4802      	1115.405       	1115.3988      	1115.323       	1115.3138      	1115.1395      	1114.8615      	1115.4348      	1115.3722      	1115.4259      	1115.3221      	1115.4227      	1115.376       	1115.3721      	1115.3898      	1115.3811      	1115.3638      	1115.4226      	1115.4067      	1115.4468      	1115.3418      	1115.5151      	1115.3545      	1115.2755      	1115.5568      	1115.4244      	1115.4349      	
1115.3904      	1115.3765      	1115.3424      	1115.3358      	1115.2863      	1115.4717      	1115.3835      	1115.4363      	1115.3398      	1115.3716      	1115.4113      	1115.403       	1115.3699      	1115.4181      	1115.414       	1115.3762      	1115.3899      	1115.4309      	1115.3958      	1115.4159      	1115.4542      	1115.4563      	1115.4406      	1115.4058      	1115.3438      	1115.3993      	1115.3616      	1115.427       	1115.4061      	1115.4064      	1115.4127      	1115.373       	1115.4055      	1115.41        	1115.4763      	1115.3794      	1115.3972      	1115.2793      	1115.4844      	1115.261       	1115.5415      	1115.3417      	1115.4727      	1115.3777      	1115.4253      	1115.3784      	1115.3951      	1115.3734      	1115.4188      	1115.5532      	1115.4109      	1115.4053      	1115.4133      	1115.4224      	1115.4609      	1115.3671      	1115.4363      	1115.4143      	1115.4233      	1115.3984      	1115.2627      	1115.5513      	1115.3992      	1115.409       	1115.4122      	1115.5011      	1115.515       	1115.6106      	1115.4454      	1115.387       	1115.4487      	1115.4187      	1115.3564      	1115.4249      	1115.394       	1115.3567      	1115.345       	1115.3622      	1115.1305      	1114.6785      	1115.2969      	1115.3713      	1115.3137      	1115.3673      	1115.3599      	1115.354       	1115.3671      	1115.3546      	1115.3436      	1115.3846      	1115.3542      	1115.3163      	1115.333       	1115.3938      	1115.3885      	1115.3308      	1115.4376      	1115.4084      	1115.4467      	1115.4359      	
1115.2345      	1115.2273      	1115.2197      	1115.2198      	1115.2034      	1115.229       	1115.2368      	1115.1903      	1115.2573      	1115.212       	1115.2423      	1115.2654      	1115.2072      	1115.2695      	1115.2456      	1115.2162      	1115.1804      	1115.2722      	1115.2845      	1115.2284      	1115.1619      	1115.3706      	1115.2274      	1115.2478      	1115.2151      	1115.1609      	1115.3295      	1115.2719      	1115.288       	1115.2474      	1115.2753      	1115.2241      	1115.2435      	1115.2118      	1115.2941      	1115.1478      	1115.2023      	1115.3464      	1115.1975      	1115.1685      	1115.2534      	1115.1306      	1115.2218      	1115.2091      	1115.1194      	1115.2374      	1115.1715      	1115.2423      	1115.1633      	1115.1505      	1115.3027      	1115.2067      	1115.1802      	1115.2927      	1115.2446      	1115.2373      	1115.2258      	1115.178       	1115.3064      	1115.2042      	1115.3265      	1115.2657      	1115.1682      	1115.3328      	1115.3142      	1115.3158      	1115.2013      	1115.2661      	1115.1743      	1115.163       	1115.2174      	1115.1053      	1115.178       	1115.2078      	1115.1273      	1115.1133      	1115.2648      	1114.9655      	1115.0386      	1114.6649      	1114.6185      	1115.3214      	1115.2526      	1115.2473      	1115.2717      	1115.1973      	1115.1993      	1115.2217      	1115.2831      	1115.2423      	1115.2104      	1115.3291      	1115.1968      	1115.2749      	1115.2826      	1115.3066      	1115.2703      	1115.3278      	1115.2306      	1115.3411      	
1115.3021      	1115.2527      	1115.2174      	1115.2865      	1115.3098      	1115.232       	1115.272       	1115.3097      	1115.1781      	1115.2762      	1115.256       	1115.1818      	1115.3339      	1115.3063      	1115.2716      	1115.325       	1115.1844      	1115.3567      	1115.3271      	1115.3148      	1115.3352      	1115.3618      	1115.3336      	1115.3237      	1115.3774      	1115.3606      	1115.3125      	1115.2047      	1115.5103      	1115.3739      	1115.3524      	1115.2908      	1115.3687      	1115.2767      	1115.3636      	1115.2739      	1115.3661      	1115.3251      	1115.3345      	1115.2877      	1115.3507      	1115.3403      	1115.2856      	1115.3741      	1115.3318      	1115.4556      	1115.3416      	1115.3601      	1115.3036      	1115.3597      	1115.4052      	1115.3563      	1115.2795      	1115.4415      	1115.2421      	1115.5237      	1115.5468      	1115.5427      	1115.4604      	1115.3446      	1115.4523      	1115.3694      	1115.3759      	1115.4227      	1115.4072      	1115.3198      	1115.2456      	1115.4413      	1115.3937      	1115.2537      	1115.2871      	1115.3181      	1115.3606      	1115.3195      	1115.3726      	1115.3888      	1115.3292      	1115.3722      	1115.186       	1114.9513      	1114.8184      	1115.2665      	1115.4462      	1115.3788      	1115.3865      	1115.4042      	1115.3812      	1115.3823      	1115.3829      	1115.3501      	1115.2761      	1115.4501      	1115.4767      	1115.4655      	1115.4296      	1115.4503      	1115.3705      	1115.5339      	1115.4858      	1115.45        	
1115.5677      	1115.5718      	1115.4757      	1115.5461      	1115.6831      	1115.5835      	1115.5988      	1115.5876      	1115.548       	1115.5812      	1115.6228      	1115.5653      	1115.6321      	1115.5813      	1115.5834      	1115.5383      	1115.6643      	1115.6112      	1115.6168      	1115.6356      	1115.6156      	1115.6024      	1115.6294      	1115.665       	1115.5594      	1115.6764      	1115.6241      	1115.6389      	1115.6122      	1115.6082      	1115.6366      	1115.591       	1115.6425      	1115.6445      	1115.6372      	1115.6089      	1115.6423      	1115.6099      	1115.6737      	1115.5803      	1115.6077      	1115.5839      	1115.6072      	1115.6542      	1115.6262      	1115.6718      	1115.6365      	1115.7085      	1115.6576      	1115.6392      	1115.675       	1115.6678      	1115.7865      	1115.9094      	1115.7462      	1115.7391      	1115.7395      	1115.7563      	1115.7245      	1115.6542      	1115.6663      	1115.6512      	1115.6731      	1115.634       	1115.6191      	1115.6582      	1115.675       	1115.6425      	1115.6731      	1115.6927      	1115.5343      	1115.6653      	1115.6747      	1115.719       	1115.6345      	1115.6962      	1115.7507      	1115.6917      	1115.4535      	1115.471       	1115.5339      	1115.2732      	1115.8999      	1115.7496      	1115.7678      	1115.7511      	1115.7737      	1115.6772      	1115.8253      	1115.778       	1115.765       	1115.7518      	1115.7664      	1115.7991      	1115.83        	1115.7747      	1115.7794      	1115.7946      	1115.7225      	1115.7959      	
1115.9854      	1115.99        	1115.9608      	1115.9576      	1115.9877      	1115.9685      	1115.9996      	1115.9829      	1116.0323      	1116.0128      	1116.0245      	1116.02        	1116.0072      	1116.0206      	1116.0206      	1116.0406      	1116.0261      	1116.0199      	1116.0574      	1116.0773      	1116.0334      	1116.1018      	1116.0735      	1116.0227      	1116.1173      	1116.0653      	1115.9756      	1116.0441      	1116.0377      	1116.1067      	1115.9904      	1116.0339      	1116.0753      	1116.0331      	1116.0045      	1116.0249      	1116.0474      	1116.0262      	1116.0223      	1115.937       	1116.0165      	1115.9966      	1116.0353      	1116.0326      	1116.042       	1116.0901      	1116.0194      	1116.0184      	1116.24        	1116.0468      	1116.1526      	1116.2292      	1116.1536      	1116.1187      	1116.1349      	1116.0743      	1116.0294      	1115.9363      	1116.2048      	1116.0009      	1116.0616      	1115.9758      	1116.009       	1116.0521      	1116.0499      	1115.9624      	1116.0521      	1116.059       	1116.0066      	1116.0605      	1116.033       	1116.0344      	1116.0958      	1116.0745      	1116.0745      	1116.021       	1116.189       	1115.9729      	1116.1482      	1115.7869      	1115.7803      	1115.6772      	1116.2644      	1116.1387      	1116.0234      	1116.104       	1116.1327      	1116.1224      	1116.0857      	1116.1335      	1116.1471      	1116.1128      	1116.1425      	1116.1534      	1116.1853      	1116.1874      	1116.2368      	1116.2561      	1116.1372      	1116.255       	
1116.2134      	1116.1708      	1116.1665      	1116.1333      	1116.1744      	1116.2017      	1116.1853      	1116.2183      	1116.1982      	1116.1799      	1116.2329      	1116.2405      	1116.2001      	1116.2764      	1116.1765      	1116.205       	1116.2883      	1116.2084      	1116.2687      	1116.1827      	1116.255       	1116.2693      	1116.2509      	1116.2189      	1116.2544      	1116.2762      	1116.2521      	1116.2361      	1116.2062      	1116.2096      	1116.1896      	1116.129       	1116.3342      	1116.2366      	1116.1714      	1116.1766      	1116.1909      	1116.2472      	1116.2292      	1116.2268      	1116.2466      	1116.2068      	1116.2319      	1116.1243      	1116.2434      	1116.4003      	1116.3495      	1116.5027      	1116.2994      	1116.313       	1116.3087      	1116.23        	1116.3464      	1116.2776      	1116.2771      	1116.225       	1116.2753      	1116.262       	1116.2034      	1116.1292      	1116.2069      	1116.2225      	1116.2384      	1116.2051      	1116.2335      	1116.2489      	1116.1869      	1116.2579      	1116.2009      	1116.1598      	1116.2291      	1116.2579      	1116.1494      	1116.1108      	1116.2839      	1116.3391      	1116.3546      	1116.1991      	1116.1241      	1116.047       	1115.7778      	1115.8512      	1116.4235      	1116.2722      	1116.2616      	1116.192       	1116.3544      	1116.297       	1116.2891      	1116.3276      	1116.3372      	1116.2278      	1116.3666      	1116.3358      	1116.3907      	1116.3148      	1116.4037      	1116.3744      	1116.4012      	1116.3247      	
1116.2977      	1116.2708      	1116.3022      	1116.337       	1116.3213      	1116.2809      	1116.3375      	1116.3271      	1116.3047      	1116.3446      	1116.3369      	1116.3715      	1116.3572      	1116.2836      	1116.3221      	1116.3583      	1116.3585      	1116.3967      	1116.3824      	1116.3243      	1116.349       	1116.3994      	1116.4001      	1116.4098      	1116.4147      	1116.3491      	1116.4192      	1116.3063      	1116.421       	1116.3577      	1116.393       	1116.3873      	1116.3182      	1116.21        	1116.5065      	1116.4855      	1116.3794      	1116.4502      	1116.4012      	1116.4246      	1116.3245      	1116.454       	1116.6155      	1116.7394      	1116.6342      	1116.5214      	1116.4366      	1116.5255      	1116.4192      	1116.519       	1116.4796      	1116.4808      	1116.5515      	1116.5077      	1116.5575      	1116.5393      	1116.4579      	1116.4813      	1116.3976      	1116.5079      	1116.3812      	1116.4691      	1116.3812      	1116.3813      	1116.4866      	1116.4419      	1116.3925      	1116.4546      	1116.4573      	1116.4207      	1116.4242      	1116.4487      	1116.4022      	1116.4788      	1116.429       	1116.4631      	1116.4274      	1116.4523      	1116.267       	1116.493       	1115.9368      	1116.1599      	1116.4211      	1116.4309      	1116.5448      	1116.4694      	1116.4894      	1116.534       	1116.5194      	1116.5332      	1116.5684      	1116.4467      	1116.5233      	1116.5974      	1116.4841      	1116.561       	1116.515       	1116.4729      	1116.55        	1116.6134      	
1116.6678      	1116.6166      	1116.6322      	1116.6584      	1116.7043      	1116.6218      	1116.6892      	1116.6421      	1116.6765      	1116.7058      	1116.7051      	1116.7761      	1116.6814      	1116.6943      	1116.6742      	1116.7316      	1116.7426      	1116.7349      	1116.7556      	1116.6884      	1116.7656      	1116.7065      	1116.5906      	1116.7323      	1116.804       	1116.7823      	1116.7504      	1116.7336      	1116.7479      	1116.711       	1116.6747      	1116.6987      	1116.6937      	1116.7316      	1116.6964      	1116.6843      	1116.6573      	1116.7219      	1116.7113      	1116.711       	1116.7283      	1116.8817      	1117.134       	1116.964       	1116.9257      	1116.8419      	1116.7656      	1116.7866      	1116.8134      	1116.8158      	1116.8761      	1116.7765      	1116.8097      	1116.8274      	1116.8176      	1116.781       	1116.827       	1116.9099      	1116.7952      	1116.7776      	1116.7583      	1116.7491      	1116.7576      	1116.7417      	1116.7802      	1116.754       	1116.7461      	1116.8091      	1116.8168      	1116.8235      	1116.7838      	1116.8296      	1116.8224      	1116.6877      	1116.898       	1116.8684      	1116.7262      	1116.9127      	1116.8972      	1116.66        	1116.3167      	1116.6613      	1116.6776      	1116.8574      	1116.8738      	1116.8256      	1116.9004      	1116.8859      	1116.853       	1116.9293      	1116.9114      	1116.834       	1116.922       	1116.8608      	1116.7733      	1116.8872      	1116.9417      	1116.9153      	1116.9436      	1116.9314      	
1116.7704      	1116.7372      	1116.7303      	1116.757       	1116.744       	1116.7401      	1116.8005      	1116.7866      	1116.7292      	1116.76        	1116.7688      	1116.7985      	1116.8206      	1116.7556      	1116.746       	1116.7102      	1116.9464      	1116.89        	1116.8302      	1116.8049      	1116.8192      	1116.9297      	1116.7402      	1116.5878      	1116.936       	1116.8583      	1116.8682      	1116.8113      	1116.7963      	1116.8274      	1116.8008      	1116.8376      	1116.8446      	1116.8347      	1116.8423      	1116.7742      	1116.8064      	1116.8035      	1116.7355      	1116.8068      	1116.7933      	1117.0607      	1117.0656      	1116.9148      	1116.9773      	1116.8748      	1116.8138      	1116.8383      	1116.7717      	1116.9282      	1116.6849      	1116.7404      	1116.798       	1116.805       	1116.7765      	1116.7719      	1116.7533      	1116.7388      	1116.7784      	1116.7189      	1116.7238      	1116.6865      	1116.7013      	1116.7162      	1116.6625      	1116.7668      	1116.7135      	1116.654       	1116.6893      	1116.6971      	1116.6407      	1116.773       	1116.577       	1116.7245      	1116.6907      	1116.5978      	1116.6893      	1116.7072      	1116.645       	1116.5808      	1116.4915      	1116.2102      	1116.5216      	1116.7709      	1116.6765      	1116.6835      	1116.6786      	1116.7657      	1116.6497      	1116.7928      	1116.6132      	1116.7711      	1116.7833      	1116.7219      	1116.6884      	1116.7552      	1116.717       	1116.7006      	1116.6431      	1116.7808      	
1116.577       	1116.5066      	1116.5519      	1116.574       	1116.5354      	1116.5042      	1116.5637      	1116.6135      	1116.5679      	1116.5916      	1116.6106      	1116.633       	1116.6117      	1116.6304      	1116.6501      	1116.6453      	1116.6329      	1116.619       	1116.5568      	1116.6456      	1116.6377      	1116.6198      	1116.5916      	1116.6013      	1116.6309      	1116.6301      	1116.6066      	1116.575       	1116.5802      	1116.5604      	1116.5421      	1116.5432      	1116.5016      	1116.3992      	1116.6384      	1116.5675      	1116.5398      	1116.5361      	1116.484       	1116.4531      	1116.4246      	1116.8778      	1116.6895      	1116.5957      	1116.6085      	1116.5941      	1116.5095      	1116.4849      	1116.5135      	1116.4725      	1116.3464      	1116.4918      	1116.4218      	1116.4374      	1116.4486      	1116.427       	1116.3997      	1116.4395      	1116.3928      	1116.2771      	1116.3425      	1116.4381      	1116.3724      	1116.3649      	1116.2534      	1116.4478      	1116.3909      	1116.3218      	1116.4269      	1116.2802      	1116.4005      	1116.3572      	1116.365       	1116.3804      	1116.2         	1116.5177      	1116.3895      	1116.4182      	1116.3477      	1116.3682      	1115.9852      	1116.039       	1115.8884      	1116.6448      	1116.3535      	1116.339       	1116.3694      	1116.3756      	1116.4825      	1116.4495      	1116.3972      	1116.3384      	1116.5077      	1116.2504      	1116.6537      	1116.3846      	1116.2234      	1116.5975      	1116.4148      	1116.352       	
1116.0671      	1116.0171      	1116.0431      	1116.0854      	1116.0416      	1116.0419      	1116.0835      	1116.0288      	1115.9731      	1116.1101      	1116.0079      	1115.9244      	1116.0242      	1115.9933      	1116.0258      	1115.9452      	1115.9644      	1115.9448      	1116.0503      	1116.0103      	1115.9644      	1115.9882      	1116.0358      	1115.9524      	1115.9304      	1115.9452      	1115.9625      	1115.8578      	1115.9237      	1115.934       	1115.8724      	1115.8192      	1115.8718      	1115.7977      	1115.8787      	1115.7986      	1115.899       	1115.8572      	1115.8417      	1115.8635      	1115.8319      	1115.9052      	1116.2365      	1116.0107      	1116.0034      	1115.9706      	1115.8364      	1115.9069      	1115.8452      	1115.8615      	1115.8608      	1115.8763      	1115.8433      	1115.786       	1115.8031      	1115.717       	1115.9124      	1115.7888      	1115.7532      	1115.8826      	1115.6194      	1115.7657      	1115.8866      	1115.8385      	1115.811       	1115.8083      	1115.8021      	1115.6641      	1115.9429      	1115.8035      	1115.7318      	1115.6627      	1115.839       	1115.827       	1115.814       	1115.7704      	1115.8407      	1115.736       	1115.8368      	1115.8094      	1115.6556      	1115.3156      	1115.3333      	1115.6952      	1115.8293      	1115.8066      	1115.8792      	1115.7894      	1115.8433      	1115.8273      	1115.8065      	1115.8593      	1115.8125      	1115.7017      	1115.8911      	1115.7805      	1115.728       	1115.8013      	1115.72        	1115.7966      	
1115.2572      	1115.2335      	1115.2128      	1115.2086      	1115.2305      	1115.2294      	1115.2874      	1115.2518      	1115.2667      	1115.2502      	1115.2255      	1115.2474      	1115.2972      	1115.2853      	1115.2788      	1115.293       	1115.2443      	1115.231       	1115.3082      	1115.3323      	1115.3112      	1115.2502      	1115.3358      	1115.3113      	1115.3077      	1115.3439      	1115.2915      	1115.3123      	1115.2603      	1115.2982      	1115.311       	1115.1472      	1115.3411      	1115.2875      	1115.3463      	1115.2632      	1115.3528      	1115.3235      	1115.2999      	1115.2751      	1115.3888      	1115.3594      	1115.7261      	1115.5144      	1115.5459      	1115.4192      	1115.3547      	1115.3179      	1115.3777      	1115.3312      	1115.365       	1115.2815      	1115.2948      	1115.2235      	1115.242       	1115.3214      	1115.2684      	1115.2493      	1115.2537      	1115.1584      	1115.3009      	1115.1896      	1115.2622      	1115.1818      	1115.2831      	1115.1772      	1115.2369      	1115.1713      	1115.2163      	1115.3511      	1115.0051      	1115.267       	1115.2808      	1115.2424      	1115.2252      	1115.2864      	1115.244       	1115.3313      	1115.3071      	1115.2694      	1115.1902      	1115.0198      	1114.8057      	1115.0667      	1115.4211      	1115.3195      	1115.2356      	1115.4022      	1115.3046      	1115.3076      	1115.2212      	1115.4275      	1115.2914      	1115.342       	1115.2793      	1115.3522      	1115.2943      	1115.2812      	1115.3334      	1115.3364      	
1115.5917      	1115.5674      	1115.5549      	1115.6119      	1115.6877      	1115.6177      	1115.7114      	1115.6923      	1115.6307      	1115.7357      	1115.7296      	1115.7004      	1115.7622      	1115.7974      	1116.0144      	1115.7228      	1115.6082      	1115.669       	1115.4427      	1115.8015      	1115.8799      	1115.8995      	1115.8345      	1115.8333      	1115.9138      	1115.9349      	1115.8016      	1115.9536      	1115.9083      	1115.8335      	1115.9285      	1115.9192      	1115.9431      	1115.9968      	1115.9797      	1115.7804      	1116.0945      	1116.0604      	1116.0392      	1115.9464      	1116.054       	1116.0835      	1116.4475      	1116.1754      	1116.1515      	1116.147       	1116.1671      	1115.9982      	1116.1157      	1116.0729      	1116.1532      	1116.1165      	1116.076       	1116.0637      	1116.1561      	1116.1545      	1116.0868      	1116.2694      	1116.1184      	1116.0721      	1116.1566      	1116.1687      	1116.2799      	1116.1462      	1116.2994      	1116.2622      	1116.2245      	1116.2893      	1116.2195      	1116.3606      	1116.2477      	1116.1902      	1116.2095      	1116.3964      	1116.4116      	1116.3729      	1116.3573      	1116.3555      	1116.3849      	1116.414       	1116.2195      	1116.0164      	1116.1659      	1116.1036      	1116.5675      	1116.2932      	1116.4998      	1116.5409      	1116.4314      	1116.5212      	1116.4524      	1116.5964      	1116.461       	1116.5264      	1116.4855      	1116.5305      	1116.4944      	1116.5581      	1116.597       	1116.4683      	
