# www.neaspec.com
# Scan:	 	Whitelight Imaging
# Project:	 	20251007_PS
# Description:	 	
# Date:	 	10/07/2025 13:27:15
# Scanner Center Position (X, Y):	[µm]	49.99	50.01	 
# Rotation:	[°]	0	 	 
# Scan Area (X, Y, Z):	[µm]	5.000	5.000	0.000
# Pixel Area (X, Y, Z):	[px]	100	100	1
# Interferometer Center/Distance:	[µm]	548.096	0.000	 
# Averaging:	 	1	 	 
# Integration time:	[ms]	5	 	 
# Wavenumber Scaling:	 	1.000000	 	 
# Laser Source:	 	4.5-15 µm nano-FTIR laser
# Detector:	 	R
# Target Wavelength:	[µm]	7.502	 	 
# Demodulation Mode:	 	Fourier
# Tip Frequency:	[Hz]	241,340.500	 	 
# Tip Amplitude:	[mV]	45.700	 	 
# Tapping Amplitude:	[nm]	77.130	 	 
# Modulation Frequency:	[Hz]	0.000	 	 
# Modulation Amplitude:	[mV]	0.000	 	 
# Modulation Offset:	[mV]	0.000	 	 
# Setpoint:	[%]	79.75	 	 
# Regulator (P, I, D):	 	4.206850	8.625812	1.000000
# Tip Potential:	[mV]	0.000	 	 
# M1A Scaling:	[nm/V]	0.426	 	 
# M1A Cantilever Factor:	 	1,000	 	 
# Q-Factor:	 	487.4	 	 
# Version:	 	2.1.11536.0
1110.6223      	1110.6044      	1110.7135      	1110.6599      	1110.6368      	1110.6595      	1110.6359      	1110.6671      	1110.6521      	1110.5936      	1110.6239      	1110.5806      	1110.6108      	1110.6265      	1110.5453      	1110.4513      	1110.1659      	1110.3674      	1110.4141      	1110.4044      	1110.5598      	1110.522       	1110.6377      	1110.5636      	1110.5806      	1110.6193      	1110.5967      	1110.6007      	1110.5682      	1110.6423      	1110.6187      	1110.6078      	1110.6111      	1110.5962      	1110.6177      	1110.5992      	1110.6381      	1110.6052      	1110.5847      	1110.647       	1110.6066      	1110.5767      	1110.6501      	1110.6111      	1110.5056      	1110.5936      	1110.5145      	1110.6154      	1110.4547      	1110.582       	1110.4181      	1110.7161      	1110.6615      	1110.3336      	1110.5939      	1110.7808      	1110.7645      	1110.5548      	1110.5012      	1110.4717      	1110.454       	1110.4839      	1110.4368      	1110.5         	1110.4426      	1110.4188      	1110.4669      	1110.4481      	1110.4817      	1110.4104      	1110.4718      	1110.4626      	1110.3907      	1110.3756      	1110.433       	1110.3965      	1110.4155      	1110.4146      	1110.4487      	1110.381       	1110.4331      	1110.4169      	1110.4065      	1110.4904      	1110.475       	1110.5057      	1110.4757      	1110.5476      	1110.504       	1110.5007      	1110.5625      	1110.5605      	1110.6183      	1110.5786      	1110.6183      	1110.6163      	1110.6202      	1110.5519      	1110.6226      	1110.6327      	
1110.5315      	1110.5463      	1110.5602      	1110.5708      	1110.5276      	1110.5366      	1110.5559      	1110.529       	1110.5538      	1110.544       	1110.5303      	1110.5559      	1110.4855      	1110.394       	1110.4937      	1110.481       	1109.8881      	1110.219       	1110.2739      	1110.4114      	1110.3462      	1110.4592      	1110.4288      	1110.3771      	1110.468       	1110.4755      	1110.4454      	1110.4634      	1110.4246      	1110.4978      	1110.4677      	1110.5037      	1110.474       	1110.5105      	1110.499       	1110.4845      	1110.4869      	1110.4915      	1110.4863      	1110.371       	1110.4629      	1110.4578      	1110.5138      	1110.4136      	1110.4773      	1110.4348      	1110.4423      	1110.4456      	1110.3826      	1110.4694      	1110.4636      	1110.3228      	1110.4979      	1110.4534      	1110.6216      	1110.5731      	1110.4536      	1110.3425      	1110.358       	1110.4243      	1110.3976      	1110.3237      	1110.3567      	1110.3359      	1110.3767      	1110.3425      	1110.327       	1110.3702      	1110.3987      	1110.2936      	1110.3378      	1110.3693      	1110.329       	1110.3496      	1110.3496      	1110.3691      	1110.3468      	1110.3533      	1110.3583      	1110.4009      	1110.3763      	1110.4324      	1110.3485      	1110.4269      	1110.3889      	1110.4596      	1110.4849      	1110.4286      	1110.4861      	1110.5116      	1110.4878      	1110.4904      	1110.531       	1110.551       	1110.521       	1110.5857      	1110.5043      	1110.4617      	1110.4944      	1110.5978      	
1110.3894      	1110.3416      	1110.4572      	1110.3523      	1110.4569      	1110.3887      	1110.3634      	1110.3376      	1110.3694      	1110.388       	1110.3391      	1110.3038      	1110.3553      	1110.3302      	1110.2964      	1110.3314      	1109.9336      	1109.996       	1110.036       	1110.1517      	1110.2         	1110.2518      	1110.3478      	1110.295       	1110.3602      	1110.3323      	1110.2642      	1110.356       	1110.3118      	1110.3857      	1110.3217      	1110.3578      	1110.3999      	1110.3235      	1110.3735      	1110.3318      	1110.3995      	1110.3319      	1110.5923      	1110.3671      	1110.3925      	1110.3956      	1110.3716      	1110.3806      	1110.3552      	1110.2239      	1110.3408      	1110.3853      	1110.2867      	1110.3726      	1110.3306      	1110.2615      	1110.3534      	1110.4705      	1110.4291      	1110.3104      	1110.2937      	1110.2802      	1110.3188      	1110.2825      	1110.2526      	1110.3279      	1110.2344      	1110.3234      	1110.3351      	1110.295       	1110.301       	1110.2948      	1110.2798      	1110.279       	1110.2592      	1110.2954      	1110.2645      	1110.307       	1110.3215      	1110.2509      	1110.2886      	1110.2743      	1110.2595      	1110.3295      	1110.2804      	1110.3448      	1110.2622      	1110.3878      	1110.3744      	1110.3646      	1110.224       	1110.3407      	1110.3687      	1110.5232      	1110.3617      	1110.4093      	1110.4308      	1110.3525      	1110.4607      	1110.4573      	1110.3448      	1110.2703      	1110.2258      	1110.4143      	
1110.3827      	1110.342       	1110.4354      	1110.3711      	1110.3501      	1110.3822      	1110.4089      	1110.4084      	1110.348       	1110.3156      	1110.3245      	1110.3206      	1110.3657      	1110.3287      	1110.2706      	1110.4192      	1110.049       	1109.9576      	1110.0535      	1110.1776      	1110.2771      	1110.2921      	1110.3428      	1110.3224      	1110.4241      	1110.299       	1110.276       	1110.4034      	1110.425       	1110.3558      	1110.3813      	1110.3014      	1110.3367      	1110.3469      	1110.3695      	1110.4413      	1110.2502      	1110.4128      	1110.3147      	1110.3763      	1110.372       	1110.1975      	1110.49        	1110.4332      	1110.2955      	1110.3523      	1110.3544      	1110.2517      	1110.3146      	1110.4446      	1110.2316      	1110.3318      	1110.2098      	1110.3044      	1110.3176      	1110.2695      	1110.2585      	1110.2821      	1110.1964      	1110.2345      	1110.244       	1110.1721      	1110.2029      	1110.2745      	1110.2039      	1110.1821      	1110.1979      	1110.2352      	1110.1945      	1110.2098      	1110.2034      	1110.1825      	1110.229       	1110.243       	1110.2156      	1110.2274      	1110.2379      	1110.2083      	1110.287       	1110.3054      	1110.2662      	1110.2313      	1110.2979      	1110.2554      	1110.2915      	1110.3196      	1110.3478      	1110.3068      	1110.3566      	1110.3286      	1110.3661      	1110.3546      	1110.3905      	1110.4846      	1110.4031      	1110.4094      	1110.4922      	1110.3826      	1110.4097      	1110.4545      	
1110.3107      	1109.9269      	1109.9563      	1110.2726      	1110.3048      	1110.3534      	1110.328       	1110.3138      	1110.3508      	1110.3177      	1110.2872      	1110.296       	1110.286       	1110.2141      	1110.3348      	1110.2854      	1110.1151      	1109.8358      	1110.0587      	1110.0852      	1110.1785      	1110.2522      	1110.337       	1110.217       	1110.2577      	1110.2961      	1110.2584      	1110.2876      	1110.3375      	1110.4393      	1110.2522      	1110.3915      	1110.3445      	1110.2312      	1110.2838      	1110.5409      	1110.2098      	1110.3541      	1110.259       	1110.287       	1110.289       	1110.2319      	1110.4266      	1110.2418      	1110.3025      	1110.2753      	1110.2391      	1110.2468      	1110.2559      	1110.1782      	1110.16        	1110.2955      	1110.2098      	1110.2174      	1110.253       	1110.2521      	1110.228       	1110.238       	1110.2799      	1110.2549      	1110.1917      	1110.223       	1110.2117      	1110.2273      	1110.2354      	1110.2081      	1110.1439      	1110.2222      	1110.1825      	1110.197       	1110.1974      	1110.1793      	1110.2124      	1110.1882      	1110.2599      	1110.2903      	1110.2542      	1110.1984      	1110.2876      	1110.2177      	1110.2246      	1110.1915      	1110.2775      	1110.2446      	1110.3083      	1110.289       	1110.3184      	1110.3372      	1110.3514      	1110.3597      	1110.3776      	1110.381       	1110.4138      	1110.4116      	1110.273       	1110.5441      	1110.4474      	1110.3667      	1110.3177      	1110.369       	
1110.4186      	1110.4495      	1110.4198      	1110.4236      	1110.4084      	1110.4335      	1110.4257      	1110.4435      	1110.2849      	1110.3627      	1110.4076      	1110.3547      	1110.3792      	1110.41        	1110.3147      	1110.3898      	1110.2343      	1109.8873      	1110.15        	1110.209       	1110.2626      	1110.3494      	1110.4343      	1110.3555      	1110.2943      	1110.2595      	1110.513       	1110.4357      	1110.331       	1110.4768      	1110.3107      	1110.431       	1110.3997      	1110.3477      	1110.4617      	1110.3677      	1110.4202      	1110.4507      	1110.3079      	1110.553       	1110.3715      	1110.3308      	1110.4412      	1110.2161      	1110.3295      	1110.3036      	1110.314       	1110.3771      	1110.3145      	1110.2516      	1110.4529      	1110.2482      	1110.2715      	1110.375       	1110.3271      	1110.3303      	1110.3468      	1110.3593      	1110.3062      	1110.299       	1110.3651      	1110.2388      	1110.3132      	1110.2987      	1110.3242      	1110.3612      	1110.3575      	1110.2255      	1110.3433      	1110.2671      	1110.3055      	1110.436       	1110.2062      	1110.293       	1110.3016      	1110.2927      	1110.384       	1110.269       	1110.3016      	1110.337       	1110.3119      	1110.3417      	1110.327       	1110.3649      	1110.3997      	1110.3665      	1110.4568      	1110.3801      	1110.5431      	1110.321       	1110.3925      	1110.5183      	1110.5714      	1110.4519      	1110.4155      	1110.5554      	1110.2609      	1110.4963      	1110.5526      	1110.531       	
1110.5115      	1110.5248      	1110.4841      	1110.5021      	1110.5148      	1110.539       	1110.4646      	1110.4247      	1110.5299      	1110.4622      	1110.495       	1110.4902      	1110.4827      	1110.4589      	1110.4255      	1110.4797      	1110.459       	1109.9619      	1110.1516      	1110.3264      	1110.3495      	1110.3813      	1110.3762      	1110.4634      	1110.4258      	1110.299       	1110.3926      	1110.5348      	1110.5774      	1110.5311      	1110.555       	1110.437       	1110.4706      	1110.3416      	1110.5294      	1110.5588      	1110.4357      	1110.7097      	1110.3862      	1110.3651      	1110.4647      	1110.3726      	1110.4169      	1110.4017      	1110.4364      	1110.3267      	1110.4031      	1110.4071      	1110.4749      	1110.3214      	1110.3008      	1110.4293      	1110.3397      	1110.3673      	1110.4064      	1110.4677      	1110.3771      	1110.3882      	1110.3802      	1110.3527      	1110.3748      	1110.4143      	1110.3723      	1110.3801      	1110.3677      	1110.4254      	1110.3342      	1110.3931      	1110.3026      	1110.43        	1110.4106      	1110.4376      	1110.3093      	1110.4185      	1110.3577      	1110.4218      	1110.4518      	1110.4661      	1110.3965      	1110.4565      	1110.4962      	1110.4172      	1110.4147      	1110.425       	1110.5013      	1110.4678      	1110.5483      	1110.5387      	1110.4738      	1110.545       	1110.6229      	1110.5779      	1110.5167      	1110.6241      	1110.5447      	1110.6506      	1110.6368      	1110.4767      	1110.4537      	1110.595       	
1110.5577      	1110.604       	1110.5304      	1110.5554      	1110.5516      	1110.5458      	1110.5515      	1110.5819      	1110.5184      	1110.5599      	1110.4818      	1110.4523      	1110.5167      	1110.4628      	1110.4948      	1110.5493      	1110.6261      	1110.1528      	1110.2612      	1110.438       	1110.3403      	1110.4639      	1110.4979      	1110.4883      	1110.5851      	1110.4342      	1110.4622      	1110.5712      	1110.4567      	1110.5382      	1110.6049      	1110.5664      	1110.7196      	1110.4972      	1110.4916      	1110.5531      	1110.5077      	1110.5391      	1110.4729      	1110.5085      	1110.5887      	1110.4911      	1110.4851      	1110.5189      	1110.51        	1110.5186      	1110.5516      	1110.4286      	1110.5884      	1110.5405      	1110.5308      	1110.5526      	1110.5538      	1110.3939      	1110.5259      	1110.4705      	1110.5558      	1110.5112      	1110.522       	1110.5242      	1110.5188      	1110.5354      	1110.5065      	1110.549       	1110.5145      	1110.5314      	1110.4897      	1110.5249      	1110.5662      	1110.4972      	1110.5142      	1110.6146      	1110.5436      	1110.5037      	1110.5386      	1110.47        	1110.6821      	1110.4968      	1110.5634      	1110.6105      	1110.5939      	1110.6223      	1110.5741      	1110.6528      	1110.5774      	1110.7158      	1110.6241      	1110.6534      	1110.7083      	1110.7017      	1110.7218      	1110.6407      	1110.7385      	1110.7556      	1110.7064      	1110.7574      	1110.7009      	1110.7517      	1110.6198      	1110.5804      	
1110.5271      	1110.5009      	1110.5428      	1110.4158      	1110.5033      	1110.5012      	1110.4637      	1110.4501      	1110.5154      	1110.3947      	1110.5128      	1110.4044      	1110.5079      	1110.4988      	1110.511       	1110.4608      	1110.5032      	1110.5323      	1110.4911      	1110.1681      	1110.2902      	1110.4169      	1110.4915      	1110.4156      	1110.4526      	1110.442       	1110.5332      	1110.5964      	1110.4509      	1110.4958      	1110.5122      	1110.4164      	1110.4552      	1110.452       	1110.412       	1110.6638      	1110.3562      	1110.3983      	1110.3306      	1110.5598      	1110.4376      	1110.4779      	1110.3696      	1110.4763      	1110.4144      	1110.4183      	1110.4695      	1110.4513      	1110.4086      	1110.362       	1110.4257      	1110.4136      	1110.444       	1110.3933      	1110.4198      	1110.3969      	1110.4626      	1110.4171      	1110.4517      	1110.4146      	1110.4865      	1110.4872      	1110.4333      	1110.4006      	1110.49        	1110.4359      	1110.4689      	1110.5144      	1110.5697      	1110.4143      	1110.4758      	1110.4379      	1110.4601      	1110.4939      	1110.4764      	1110.4792      	1110.5002      	1110.4939      	1110.4742      	1110.5076      	1110.4822      	1110.5265      	1110.5002      	1110.5514      	1110.5579      	1110.5542      	1110.5637      	1110.622       	1110.5562      	1110.6111      	1110.6913      	1110.6024      	1110.6335      	1110.6869      	1110.6273      	1110.6936      	1110.8586      	1110.7004      	1110.6116      	1110.5405      	
1110.3517      	1110.3405      	1110.3727      	1110.3468      	1110.3022      	1110.2771      	1110.283       	1110.3439      	1110.383       	1110.3173      	1110.3065      	1110.3594      	1110.2888      	1110.3606      	1110.3071      	1110.2896      	1110.355       	1110.3992      	1110.4442      	1110.078       	1110.203       	1110.2783      	1110.3068      	1110.4131      	1110.5297      	1110.3655      	1110.3765      	1110.3314      	1110.4011      	1110.3568      	1110.3485      	1110.3597      	1110.3823      	1110.4004      	1110.2872      	1110.3348      	1110.4718      	1110.3765      	1110.3507      	1110.3757      	1110.3855      	1110.3527      	1110.3196      	1110.3931      	1110.3009      	1110.3378      	1110.3351      	1110.3684      	1110.3888      	1110.4069      	1110.3339      	1110.4231      	1110.4646      	1110.3605      	1110.3337      	1110.4949      	1110.3699      	1110.3958      	1110.4226      	1110.4246      	1110.3943      	1110.3881      	1110.4309      	1110.4249      	1110.3375      	1110.3993      	1110.4404      	1110.3644      	1110.44        	1110.4395      	1110.3419      	1110.3846      	1110.3977      	1110.5642      	1110.45        	1110.4729      	1110.4192      	1110.4742      	1110.5269      	1110.4304      	1110.517       	1110.5183      	1110.5017      	1110.5752      	1110.5265      	1110.5725      	1110.5688      	1110.5521      	1110.6626      	1110.7406      	1110.5045      	1110.6597      	1110.595       	1110.5903      	1110.5964      	1110.6003      	1110.6237      	1110.5392      	1110.3264      	1110.3696      	
1110.3062      	1110.2565      	1110.3202      	1110.3234      	1110.2495      	1110.2971      	1110.306       	1110.2277      	1110.2781      	1110.219       	1110.2365      	1110.2517      	1110.2123      	1110.211       	1110.2056      	1110.2505      	1110.2173      	1110.2909      	1110.1418      	1110.3575      	1110.202       	1110.2646      	1110.2513      	1110.261       	1110.253       	1110.3138      	1110.2053      	1110.3153      	1110.2515      	1110.2673      	1110.2987      	1110.2286      	1110.2528      	1110.4517      	1110.1451      	1110.2369      	1110.336       	1110.31        	1110.2284      	1110.3075      	1110.2603      	1110.3328      	1110.2069      	1110.2485      	1110.2551      	1110.2194      	1110.2427      	1110.217       	1110.3142      	1110.2664      	1110.34        	1110.3075      	1110.408       	1110.2339      	1110.2925      	1110.3358      	1110.333       	1110.3113      	1110.363       	1110.3531      	1110.3267      	1110.399       	1110.3456      	1110.3318      	1110.3558      	1110.3533      	1110.3673      	1110.3274      	1110.3474      	1110.4122      	1110.3518      	1110.3718      	1110.3728      	1110.3518      	1110.361       	1110.425       	1110.4812      	1110.5111      	1110.2883      	1110.4099      	1110.4501      	1110.4695      	1110.492       	1110.489       	1110.481       	1110.5334      	1110.4993      	1110.4985      	1110.4943      	1110.5431      	1110.5968      	1110.5281      	1110.6696      	1110.5826      	1110.5591      	1110.5718      	1110.5249      	1110.5964      	1110.5183      	1110.4696      	
1110.3367      	1110.2294      	1110.263       	1110.284       	1110.2034      	1110.2136      	1110.228       	1110.2102      	1110.2556      	1110.2716      	1110.1882      	1110.1854      	1110.2474      	1110.1797      	1110.2091      	1110.25        	1110.167       	1110.2018      	1110.2018      	1110.2512      	1110.1943      	1110.2728      	1110.2732      	1110.2408      	1110.2562      	1110.2802      	1110.259       	1110.2377      	1110.281       	1110.246       	1110.2485      	1110.2303      	1110.219       	1110.2615      	1110.219       	1110.2468      	1110.22        	1110.2493      	1110.2695      	1110.2352      	1110.2428      	1110.2832      	1110.2103      	1110.2745      	1110.2716      	1110.2628      	1110.2797      	1110.256       	1110.3252      	1110.2703      	1110.3159      	1110.3154      	1110.3104      	1110.3523      	1110.3322      	1110.3846      	1110.3273      	1110.3082      	1110.3645      	1110.3662      	1110.3358      	1110.398       	1110.374       	1110.3446      	1110.3715      	1110.4083      	1110.3231      	1110.3234      	1110.4418      	1110.3651      	1110.3474      	1110.368       	1110.411       	1110.4143      	1110.417       	1110.4021      	1110.4127      	1110.395       	1110.4949      	1110.4758      	1110.4637      	1110.4717      	1110.4366      	1110.509       	1110.5024      	1110.4875      	1110.6212      	1110.5143      	1110.445       	1110.6313      	1110.4939      	1110.5171      	1110.5349      	1110.5372      	1110.6217      	1110.434       	1110.4536      	1110.365       	1110.2722      	1110.338       	
1110.3748      	1110.2903      	1110.2731      	1110.3217      	1110.2926      	1110.2664      	1110.2656      	1110.24        	1110.2958      	1110.2808      	1110.1859      	1110.2915      	1110.2827      	1110.2318      	1110.2797      	1110.2919      	1110.2375      	1110.2388      	1110.2491      	1110.2305      	1110.2451      	1110.2544      	1110.2578      	1110.263       	1110.2849      	1110.286       	1110.3224      	1110.2942      	1110.3359      	1110.3622      	1110.1974      	1110.3204      	1110.3489      	1110.2277      	1110.2787      	1110.2625      	1110.2754      	1110.3171      	1110.2478      	1110.2927      	1110.2988      	1110.3042      	1110.2911      	1110.3477      	1110.3132      	1110.3108      	1110.326       	1110.3513      	1110.279       	1110.3136      	1110.3215      	1110.3245      	1110.2875      	1110.3644      	1110.2776      	1110.4435      	1110.3671      	1110.3793      	1110.3795      	1110.3878      	1110.3561      	1110.448       	1110.3958      	1110.3737      	1110.4257      	1110.3933      	1110.4001      	1110.3203      	1110.3843      	1110.4817      	1110.4283      	1110.3947      	1110.504       	1110.4208      	1110.4158      	1110.4236      	1110.4369      	1110.4187      	1110.449       	1110.4432      	1110.4425      	1110.484       	1110.4614      	1110.4327      	1110.5958      	1110.5233      	1110.4796      	1110.5276      	1110.4539      	1110.5349      	1110.5232      	1110.4519      	1110.5055      	1110.429       	1110.4922      	1110.4491      	1110.488       	1110.4373      	1110.4141      	1110.4003      	
1110.4193      	1110.399       	1110.402       	1110.342       	1110.3755      	1110.3823      	1110.3524      	1110.3093      	1110.3334      	1110.3422      	1110.2694      	1110.3403      	1110.3113      	1110.3845      	1110.2977      	1110.3885      	1110.3016      	1110.3035      	1110.295       	1110.3523      	1110.3674      	1110.2892      	1110.3225      	1110.3904      	1110.3662      	1110.3315      	1110.3599      	1110.3859      	1110.4446      	1110.3374      	1110.3645      	1110.3756      	1110.3723      	1110.3988      	1110.3842      	1110.3722      	1110.3264      	1110.3505      	1110.2927      	1110.3502      	1110.3652      	1110.3319      	1110.378       	1110.3518      	1110.3582      	1110.3619      	1110.3148      	1110.3458      	1110.3733      	1110.3717      	1110.4617      	1110.423       	1110.4425      	1110.3931      	1110.3013      	1110.1311      	1110.155       	1110.3488      	1110.4752      	1110.4843      	1110.5663      	1110.3765      	1110.3025      	1110.4797      	1110.4761      	1110.4347      	1110.5043      	1110.5093      	1110.5002      	1110.5173      	1110.4993      	1110.4962      	1110.5385      	1110.512       	1110.624       	1110.4343      	1110.4785      	1110.5681      	1110.5496      	1110.5867      	1110.6123      	1110.5325      	1110.6362      	1110.6139      	1110.554       	1110.6082      	1110.6366      	1110.5868      	1110.6665      	1110.6665      	1110.6561      	1110.7114      	1110.664       	1110.6702      	1110.6918      	1110.5779      	1110.6023      	1110.7362      	1110.6648      	1110.5643      	
1110.4421      	1110.4445      	1110.3656      	1110.389       	1110.3997      	1110.4062      	1110.3987      	1110.3553      	1110.3804      	1110.4242      	1110.4435      	1110.3763      	1110.384       	1110.4603      	1110.3823      	1110.4243      	1110.4213      	1110.4354      	1110.4655      	1110.4005      	1110.3956      	1110.3926      	1110.44        	1110.4276      	1110.4563      	1110.4524      	1110.4574      	1110.4319      	1110.4167      	1110.4536      	1110.4354      	1110.4236      	1110.4293      	1110.4624      	1110.4056      	1110.4581      	1110.3956      	1110.4436      	1110.4319      	1110.3861      	1110.4253      	1110.4285      	1110.4194      	1110.4536      	1110.4589      	1110.4669      	1110.4689      	1110.4819      	1110.4608      	1110.4714      	1110.4784      	1110.522       	1110.5387      	1110.4861      	1110.5964      	1110.4747      	1110.5685      	1110.5808      	1110.584       	1110.4913      	1110.5623      	1110.509       	1110.4598      	1110.4998      	1110.5481      	1110.5554      	1110.5502      	1110.5392      	1110.5409      	1110.5558      	1110.5958      	1110.5999      	1110.5781      	1110.5936      	1110.5665      	1110.5652      	1110.613       	1110.582       	1110.5856      	1110.6765      	1110.6279      	1110.6338      	1110.6619      	1110.6571      	1110.6772      	1110.6986      	1110.6469      	1110.6427      	1110.6785      	1110.6456      	1110.5789      	1110.6581      	1110.7479      	1110.6698      	1110.6714      	1110.565       	1110.6481      	1110.6232      	1110.5161      	1110.491       	
1110.7047      	1110.6586      	1110.6621      	1110.6901      	1110.5642      	1110.6521      	1110.6378      	1110.6642      	1110.605       	1110.662       	1110.6504      	1110.634       	1110.661       	1110.6726      	1110.67        	1110.6012      	1110.6743      	1110.6604      	1110.6146      	1110.6897      	1110.6796      	1110.6699      	1110.628       	1110.6729      	1110.6757      	1110.6403      	1110.6892      	1110.6693      	1110.6691      	1110.6372      	1110.7319      	1110.6985      	1110.6635      	1110.6538      	1110.6272      	1110.6912      	1110.6094      	1110.6437      	1110.6394      	1110.6282      	1110.6617      	1110.6652      	1110.6536      	1110.6293      	1110.6573      	1110.6729      	1110.6241      	1110.6923      	1110.7458      	1110.6434      	1110.7179      	1110.6382      	1110.7007      	1110.7279      	1110.7115      	1110.747       	1110.6974      	1110.7911      	1110.7445      	1110.7274      	1110.7427      	1110.7439      	1110.7751      	1110.7539      	1110.7745      	1110.7611      	1110.7565      	1110.7911      	1110.7026      	1110.8029      	1110.7869      	1110.7733      	1110.8303      	1110.7709      	1110.7329      	1110.7513      	1110.7826      	1110.738       	1110.7615      	1110.7479      	1110.8087      	1110.8044      	1110.8262      	1110.8247      	1110.8163      	1110.8059      	1110.8228      	1110.8147      	1110.7903      	1110.7439      	1110.7869      	1110.8591      	1110.7512      	1110.8113      	1110.793       	1110.7883      	1110.7594      	1110.7134      	1110.7063      	1110.6853      	
1110.8606      	1110.844       	1110.828       	1110.787       	1110.8782      	1110.8186      	1110.779       	1110.8665      	1110.8513      	1110.8481      	1110.9042      	1110.8436      	1110.8899      	1110.9019      	1110.8977      	1110.862       	1110.8508      	1110.9045      	1110.8706      	1110.9357      	1110.8633      	1110.9718      	1110.8385      	1110.8234      	1110.8605      	1110.9045      	1110.9308      	1110.8455      	1110.8959      	1110.9083      	1110.877       	1110.8949      	1110.846       	1110.8722      	1110.8784      	1110.872       	1110.8517      	1110.8846      	1110.8745      	1110.8967      	1110.858       	1110.8563      	1110.8732      	1110.863       	1111.0402      	1110.757       	1110.8403      	1110.9565      	1110.8904      	1110.8989      	1110.9331      	1110.9774      	1110.981       	1110.8794      	1111.0471      	1110.855       	1110.9834      	1111.0476      	1111.0569      	1110.9211      	1111.0217      	1110.9911      	1110.9832      	1111.1295      	1110.8837      	1110.8455      	1110.9921      	1110.9795      	1110.9653      	1110.9803      	1110.9509      	1111.0018      	1111.0208      	1111.0183      	1111.022       	1111.1766      	1110.8955      	1110.9277      	1111.0948      	1111.0302      	1110.9978      	1111.0154      	1111.03        	1111.0483      	1111.0637      	1111.0079      	1111.03        	1111.0519      	1111.0427      	1110.979       	1111.0089      	1110.9817      	1111.0441      	1111.0448      	1110.9327      	1111.01        	1110.965       	1110.8761      	1110.8947      	1110.9177      	
1111.0735      	1110.9866      	1111.061       	1111.0156      	1110.9946      	1110.9269      	1111.041       	1110.9976      	1111.0446      	1110.9889      	1111.0402      	1111.0269      	1111.0409      	1111.0656      	1111.06        	1111.0499      	1110.9985      	1111.0692      	1111.0508      	1111.0559      	1111.0416      	1111.035       	1111.0718      	1111.0651      	1111.1101      	1111.0298      	1111.1029      	1111.0667      	1111.0605      	1111.0458      	1111.0503      	1111.0564      	1111.0631      	1111.0403      	1111.0767      	1111.0465      	1111.0978      	1111.0188      	1111.0667      	1111.0344      	1111.0359      	1111.089       	1111.0516      	1111.0841      	1111.0472      	1111.09        	1111.0706      	1111.109       	1111.0907      	1111.0961      	1111.0994      	1111.1329      	1111.1125      	1111.1224      	1111.211       	1111.125       	1111.1887      	1111.238       	1111.299       	1111.0927      	1111.1788      	1111.1896      	1111.2031      	1111.145       	1111.1788      	1111.2526      	1111.187       	1111.186       	1111.2286      	1111.1674      	1111.1858      	1111.2407      	1111.2383      	1111.1544      	1111.1659      	1111.1942      	1111.2042      	1111.183       	1111.2336      	1111.2272      	1111.2549      	1111.2559      	1111.1506      	1111.3086      	1111.2129      	1111.2505      	1111.2124      	1111.2073      	1111.2546      	1111.2223      	1111.2136      	1111.203       	1111.2312      	1111.1545      	1111.193       	1111.1818      	1111.1718      	1110.6582      	1110.3945      	1110.5415      	
1111.0876      	1111.0905      	1111.1088      	1111.0942      	1111.0968      	1111.071       	1111.0768      	1111.0437      	1111.0044      	1111.0443      	1111.0668      	1111.1182      	1111.0708      	1111.0947      	1111.0508      	1111.1119      	1111.0748      	1111.0891      	1111.0619      	1111.079       	1111.0833      	1111.1116      	1111.116       	1111.0607      	1111.1434      	1111.1178      	1111.0837      	1111.1202      	1111.1102      	1111.0852      	1111.1062      	1111.1136      	1111.0919      	1111.0806      	1111.0975      	1111.0299      	1111.0889      	1111.0939      	1111.0708      	1111.1085      	1111.0604      	1111.1086      	1111.1337      	1111.1521      	1111.0784      	1111.0536      	1111.1471      	1111.1681      	1111.1355      	1111.1528      	1111.1538      	1111.1952      	1111.1572      	1111.1853      	1111.1825      	1111.2455      	1111.1886      	1111.2708      	1111.2042      	1111.228       	1111.2091      	1111.2012      	1111.2186      	1111.212       	1111.2537      	1111.1805      	1111.2283      	1111.2158      	1111.1968      	1111.2257      	1111.1787      	1111.2065      	1111.2296      	1111.2336      	1111.2749      	1111.2645      	1111.231       	1111.3842      	1111.2303      	1111.2551      	1111.3112      	1111.2448      	1111.2828      	1111.265       	1111.3038      	1111.2811      	1111.2556      	1111.256       	1111.2208      	1111.211       	1111.2205      	1111.2823      	1111.0714      	1111.0336      	1111.1005      	1110.9329      	1110.8582      	1111.0022      	1110.9381      	1110.9434      	
1111.137       	1111.1522      	1111.1278      	1111.0907      	1111.1466      	1111.0964      	1111.1292      	1111.144       	1111.1254      	1111.1705      	1111.1427      	1111.1794      	1111.1437      	1111.2367      	1111.1954      	1111.2261      	1111.221       	1111.2385      	1111.2404      	1111.2499      	1111.2333      	1111.2244      	1111.2747      	1111.2856      	1111.2576      	1111.2612      	1111.2108      	1111.2814      	1111.2798      	1111.2434      	1111.2444      	1111.2794      	1111.2742      	1111.291       	1111.284       	1111.2736      	1111.3186      	1111.3066      	1111.3065      	1111.3042      	1111.3341      	1111.3508      	1111.312       	1111.3397      	1111.3556      	1111.3627      	1111.3624      	1111.3835      	1111.3898      	1111.3644      	1111.3497      	1111.4243      	1111.3589      	1111.3418      	1111.4305      	1111.4089      	1111.3583      	1111.4419      	1111.4017      	1111.4122      	1111.3942      	1111.3588      	1111.3706      	1111.4059      	1111.4294      	1111.3595      	1111.4209      	1111.421       	1111.3967      	1111.4354      	1111.4553      	1111.4036      	1111.4009      	1111.4044      	1111.4568      	1111.3763      	1111.4672      	1111.4651      	1111.4528      	1111.4098      	1111.4398      	1111.4601      	1111.3975      	1111.437       	1111.3978      	1111.4802      	1111.4393      	1111.3909      	1111.3516      	1111.2316      	1111.2023      	1111.1384      	1111.1864      	1111.2798      	1111.3496      	1111.2296      	1111.2417      	1111.3263      	1111.2954      	1111.2601      	
1111.3171      	1111.3391      	1111.3396      	1111.2866      	1111.354       	1111.3225      	1111.3154      	1111.3135      	1111.3414      	1111.2922      	1111.3652      	1111.3483      	1111.3254      	1111.365       	1111.4136      	1111.383       	1111.4073      	1111.4364      	1111.4417      	1111.4509      	1111.4551      	1111.4639      	1111.4543      	1111.4373      	1111.4154      	1111.4131      	1111.4653      	1111.4469      	1111.4498      	1111.4557      	1111.4044      	1111.47        	1111.427       	1111.431       	1111.442       	1111.4435      	1111.429       	1111.4634      	1111.5022      	1111.4302      	1111.4957      	1111.5472      	1111.5165      	1111.522       	1111.5216      	1111.5681      	1111.5481      	1111.578       	1111.5071      	1111.5011      	1111.5803      	1111.5128      	1111.5411      	1111.5007      	1111.5175      	1111.5654      	1111.561       	1111.5676      	1111.6154      	1111.5659      	1111.5469      	1111.6233      	1111.6232      	1111.5895      	1111.6735      	1111.5708      	1111.5956      	1111.5646      	1111.5417      	1111.6061      	1111.5651      	1111.624       	1111.6312      	1111.5573      	1111.6427      	1111.6024      	1111.5793      	1111.6073      	1111.5856      	1111.5742      	1111.6538      	1111.5139      	1111.5803      	1111.6125      	1111.5686      	1111.6458      	1111.6228      	1111.1653      	1111.2566      	1111.3973      	1111.5038      	1111.4818      	1111.4375      	1111.4613      	1111.4833      	1111.513       	1111.4473      	1111.4348      	1111.4288      	1111.3091      	
1111.2086      	1111.265       	1111.2708      	1111.2198      	1111.3076      	1111.2451      	1111.246       	1111.2919      	1111.2802      	1111.3147      	1111.3235      	1111.2756      	1111.3124      	1111.3843      	1111.3733      	1111.3827      	1111.3632      	1111.4077      	1111.3982      	1111.4175      	1111.4545      	1111.4023      	1111.4653      	1111.3959      	1111.4025      	1111.4094      	1111.4155      	1111.3643      	1111.3713      	1111.4131      	1111.3586      	1111.4083      	1111.386       	1111.4017      	1111.4299      	1111.4384      	1111.4255      	1111.4419      	1111.3977      	1111.4485      	1111.449       	1111.476       	1111.439       	1111.5175      	1111.4657      	1111.5063      	1111.4656      	1111.5175      	1111.4913      	1111.4849      	1111.5305      	1111.4915      	1111.4802      	1111.6671      	1111.4209      	1111.5464      	1111.521       	1111.5555      	1111.58        	1111.5643      	1111.5269      	1111.6013      	1111.5481      	1111.562       	1111.5405      	1111.5344      	1111.5358      	1111.5657      	1111.5415      	1111.5656      	1111.5233      	1111.5847      	1111.4926      	1111.5542      	1111.5029      	1111.5321      	1111.5126      	1111.581       	1111.5535      	1111.5083      	1111.5571      	1111.5681      	1111.49        	1111.6257      	1111.6515      	1111.312       	1111.1388      	1111.1929      	1111.2374      	1111.3599      	1111.4696      	1111.3567      	1111.4408      	1111.4088      	1111.3971      	1111.3871      	1111.4255      	1111.3615      	1111.2798      	1111.327       	
1111.4479      	1111.4574      	1111.4478      	1111.4558      	1111.4524      	1111.478       	1111.4818      	1111.4545      	1111.4392      	1111.4749      	1111.4833      	1111.5234      	1111.4968      	1111.5015      	1111.5188      	1111.5715      	1111.5197      	1111.5441      	1111.5292      	1111.5321      	1111.5583      	1111.5297      	1111.5272      	1111.5083      	1111.5652      	1111.4781      	1111.503       	1111.5521      	1111.5437      	1111.5236      	1111.5242      	1111.5222      	1111.5066      	1111.526       	1111.5708      	1111.537       	1111.5471      	1111.5358      	1111.5382      	1111.564       	1111.6068      	1111.628       	1111.634       	1111.5802      	1111.5939      	1111.5347      	1111.5841      	1111.5663      	1111.5638      	1111.5692      	1111.5443      	1111.5802      	1111.5203      	1111.4819      	1111.6025      	1111.5701      	1111.5457      	1111.5945      	1111.6295      	1111.6127      	1111.631       	1111.6102      	1111.6108      	1111.5676      	1111.605       	1111.5514      	1111.6125      	1111.5759      	1111.5895      	1111.5829      	1111.5332      	1111.6262      	1111.5573      	1111.5962      	1111.5634      	1111.5532      	1111.5175      	1111.5731      	1111.592       	1111.4879      	1111.5869      	1111.5173      	1111.6052      	1111.5303      	1111.6017      	1111.0614      	1111.2063      	1111.3116      	1111.3983      	1111.4541      	1111.4713      	1111.5665      	1111.329       	1111.3802      	1111.5256      	1111.4855      	1111.5183      	1111.4832      	1111.3279      	1111.2616      	
1111.6309      	1111.5945      	1111.6704      	1111.6943      	1111.6495      	1111.6727      	1111.7316      	1111.5809      	1111.6985      	1111.7012      	1111.6667      	1111.7042      	1111.6484      	1111.7043      	1111.701       	1111.671       	1111.7241      	1111.7306      	1111.688       	1111.6931      	1111.7544      	1111.6932      	1111.6941      	1111.6556      	1111.6031      	1111.569       	1111.5577      	1111.5792      	1111.6292      	1111.6892      	1111.6697      	1111.7432      	1111.672       	1111.7905      	1111.5415      	1111.7648      	1111.729       	1111.7524      	1111.698       	1111.7617      	1111.7534      	1111.7351      	1111.7346      	1111.7904      	1111.7487      	1111.7969      	1111.7883      	1111.8324      	1111.826       	1111.7596      	1111.7834      	1111.8058      	1111.8206      	1111.8206      	1111.8019      	1111.7966      	1111.8345      	1111.8231      	1111.7664      	1111.8248      	1111.759       	1111.7655      	1111.6923      	1111.8496      	1111.7504      	1111.7552      	1111.7593      	1111.771       	1111.7396      	1111.7578      	1111.7083      	1111.7112      	1111.728       	1111.7601      	1111.7267      	1111.7714      	1111.7695      	1111.7612      	1111.738       	1111.7704      	1111.7772      	1111.6823      	1111.6763      	1111.7399      	1111.7393      	1111.2018      	1111.5212      	1111.5236      	1111.5145      	1111.6263      	1111.6796      	1111.66        	1111.6521      	1111.5549      	1111.723       	1111.6033      	1111.6559      	1111.6599      	1111.5054      	1111.4631      	
1111.5892      	1111.5828      	1111.5544      	1111.5786      	1111.5616      	1111.6033      	1111.5634      	1111.5851      	1111.5687      	1111.6138      	1111.6271      	1111.6375      	1111.6406      	1111.664       	1111.6345      	1111.634       	1111.7042      	1111.664       	1111.6538      	1111.6753      	1111.6912      	1111.6918      	1111.6425      	1111.6782      	1111.648       	1111.6385      	1111.6908      	1111.5975      	1111.6245      	1111.6704      	1111.6385      	1111.6267      	1111.801       	1111.5405      	1111.5283      	1111.6342      	1111.8003      	1111.7323      	1111.6213      	1111.6915      	1111.7161      	1111.7574      	1111.684       	1111.7053      	1111.7319      	1111.7229      	1111.7521      	1111.7476      	1111.7087      	1111.7712      	1111.744       	1111.7523      	1111.7726      	1111.7441      	1111.7903      	1111.7786      	1111.7941      	1111.7603      	1111.7772      	1111.8163      	1111.7958      	1111.7145      	1111.755       	1111.7323      	1111.7599      	1111.7416      	1111.7345      	1111.7562      	1111.7133      	1111.7611      	1111.766       	1111.6831      	1111.735       	1111.7618      	1111.7155      	1111.7151      	1111.71        	1111.7864      	1111.7113      	1111.7826      	1111.7722      	1111.7424      	1111.7705      	1111.7245      	1111.8724      	1111.2576      	1111.422       	1111.6243      	1111.5192      	1111.5321      	1111.6599      	1111.671       	1111.6978      	1111.595       	1111.6525      	1111.6879      	1111.6365      	1111.6687      	1111.5643      	1111.4966      	
1111.515       	1111.5436      	1111.4846      	1111.5015      	1111.4536      	1111.494       	1111.5532      	1111.5662      	1111.5046      	1111.5515      	1111.6014      	1111.5581      	1111.5409      	1111.5507      	1111.5806      	1111.5962      	1111.5497      	1111.6078      	1111.5586      	1111.5295      	1111.6051      	1111.5564      	1111.5887      	1111.6267      	1111.5844      	1111.6472      	1111.5233      	1111.5757      	1111.6072      	1111.5505      	1111.5969      	1111.6034      	1111.5887      	1111.5819      	1111.603       	1111.6112      	1111.5862      	1111.6337      	1111.5978      	1111.6381      	1111.6368      	1111.6766      	1111.654       	1111.7139      	1111.6664      	1111.7089      	1111.6984      	1111.6414      	1111.6661      	1111.7043      	1111.6409      	1111.6315      	1111.6831      	1111.619       	1111.6772      	1111.656       	1111.6986      	1111.6721      	1111.6244      	1111.713       	1111.646       	1111.6666      	1111.6327      	1111.6196      	1111.6346      	1111.6176      	1111.638       	1111.6086      	1111.6409      	1111.6608      	1111.6301      	1111.6554      	1111.6676      	1111.6946      	1111.6415      	1111.66        	1111.636       	1111.5652      	1111.6467      	1111.655       	1111.5789      	1111.6519      	1111.5691      	1111.6129      	1111.7466      	1111.1973      	1111.2823      	1111.367       	1111.3987      	1111.3085      	1111.4991      	1111.552       	1111.578       	1111.4718      	1111.4453      	1111.5397      	1111.2922      	1111.4856      	1111.456       	1111.3931      	
1111.44        	1111.4108      	1111.4572      	1111.4845      	1111.4814      	1111.5262      	1111.4865      	1111.4458      	1111.4939      	1111.5221      	1111.4628      	1111.5103      	1111.5204      	1111.5161      	1111.5679      	1111.5259      	1111.5826      	1111.5397      	1111.5754      	1111.4717      	1111.5581      	1111.5239      	1111.5232      	1111.5413      	1111.4878      	1111.5287      	1111.4778      	1111.4895      	1111.5261      	1111.5356      	1111.5447      	1111.5059      	1111.5554      	1111.5474      	1111.5929      	1111.5682      	1111.5135      	1111.5702      	1111.6101      	1111.5741      	1111.6299      	1111.5845      	1111.6279      	1111.5831      	1111.6389      	1111.5901      	1111.6177      	1111.6251      	1111.6321      	1111.6487      	1111.5948      	1111.6252      	1111.6212      	1111.5874      	1111.6107      	1111.7754      	1111.5378      	1111.6907      	1111.4342      	1111.6292      	1111.6044      	1111.5812      	1111.6174      	1111.6157      	1111.5919      	1111.621       	1111.5996      	1111.5714      	1111.6091      	1111.6224      	1111.5776      	1111.5978      	1111.6595      	1111.6602      	1111.6365      	1111.5839      	1111.6238      	1111.6088      	1111.6313      	1111.6007      	1111.62        	1111.6234      	1111.6343      	1111.6099      	1111.6395      	1111.3868      	1111.1405      	1111.3676      	1111.3564      	1111.4288      	1111.4391      	1111.5236      	1111.5144      	1111.4866      	1111.4381      	1111.5106      	1111.4688      	1111.4633      	1111.3795      	1111.4104      	
1111.3611      	1111.3777      	1111.3992      	1111.3884      	1111.4093      	1111.4215      	1111.4048      	1111.416       	1111.4043      	1111.4259      	1111.4601      	1111.4348      	1111.4657      	1111.4318      	1111.4763      	1111.4813      	1111.4438      	1111.477       	1111.4905      	1111.489       	1111.5105      	1111.5332      	1111.4514      	1111.4877      	1111.4668      	1111.4885      	1111.5333      	1111.4542      	1111.4387      	1111.4718      	1111.4924      	1111.4475      	1111.45        	1111.4904      	1111.5112      	1111.5005      	1111.5509      	1111.5123      	1111.592       	1111.4677      	1111.5643      	1111.4695      	1111.5244      	1111.5347      	1111.5245      	1111.4816      	1111.5623      	1111.5143      	1111.5592      	1111.5776      	1111.545       	1111.5613      	1111.5466      	1111.5812      	1111.5758      	1111.584       	1111.3594      	1111.2125      	1111.4188      	1111.5504      	1111.655       	1111.6727      	1111.616       	1111.4175      	1111.5105      	1111.4708      	1111.51        	1111.5339      	1111.4968      	1111.4971      	1111.4836      	1111.4758      	1111.5154      	1111.455       	1111.4365      	1111.4666      	1111.4734      	1111.4934      	1111.4155      	1111.3921      	1111.4445      	1111.413       	1111.438       	1111.3914      	1111.3846      	1111.4565      	1110.8884      	1111.1423      	1111.1838      	1111.2122      	1111.2778      	1111.3948      	1111.3676      	1111.3292      	1111.2723      	1111.3345      	1111.3158      	1111.3208      	1111.3074      	1111.3091      	
1111.4819      	1111.5245      	1111.4235      	1111.484       	1111.4984      	1111.5032      	1111.5386      	1111.4915      	1111.5243      	1111.5785      	1111.5608      	1111.5106      	1111.5778      	1111.5359      	1111.5267      	1111.5765      	1111.5446      	1111.5565      	1111.564       	1111.5774      	1111.5704      	1111.5056      	1111.5366      	1111.5277      	1111.545       	1111.4731      	1111.6265      	1111.5139      	1111.5493      	1111.4872      	1111.5425      	1111.5741      	1111.508       	1111.6028      	1111.5354      	1111.5803      	1111.6013      	1111.5541      	1111.6144      	1111.6122      	1111.6057      	1111.6141      	1111.6034      	1111.5311      	1111.5333      	1111.567       	1111.5981      	1111.6069      	1111.5254      	1111.6581      	1111.5138      	1111.6013      	1111.49        	1111.1782      	1111.3938      	1111.5271      	1111.5139      	1111.4572      	1111.5181      	1111.4626      	1111.6064      	1111.5837      	1111.7716      	1111.7948      	1111.4875      	1111.4586      	1111.4923      	1111.5203      	1111.4729      	1111.4817      	1111.486       	1111.481       	1111.5323      	1111.5037      	1111.447       	1111.4923      	1111.4501      	1111.5183      	1111.4845      	1111.4373      	1111.452       	1111.4624      	1111.444       	1111.4585      	1111.4324      	1111.6052      	1110.9517      	1111.1122      	1111.2823      	1111.217       	1111.2245      	1111.3696      	1111.3651      	1111.3516      	1111.3148      	1111.4475      	1111.3798      	1111.3326      	1111.3083      	1111.352       	
1111.5079      	1111.5005      	1111.4906      	1111.5856      	1111.5975      	1111.5526      	1111.577       	1111.6428      	1111.5706      	1111.5669      	1111.6487      	1111.4712      	1111.5593      	1111.7043      	1111.5616      	1111.5587      	1111.6139      	1111.6099      	1111.5933      	1111.6329      	1111.5156      	1111.6222      	1111.5244      	1111.5599      	1111.5616      	1111.5968      	1111.5632      	1111.5568      	1111.5997      	1111.5509      	1111.6705      	1111.5544      	1111.635       	1111.6284      	1111.6418      	1111.6439      	1111.6118      	1111.6691      	1111.6448      	1111.6606      	1111.6393      	1111.5908      	1111.6611      	1111.6654      	1111.7013      	1111.6443      	1111.7792      	1111.393       	1111.4647      	1111.4867      	1111.5654      	1111.5277      	1111.61        	1111.5471      	1111.5712      	1111.6259      	1111.6083      	1111.5983      	1111.5417      	1111.7         	1111.6896      	1111.595       	1111.7572      	1112.0709      	1111.6438      	1111.5215      	1111.5631      	1111.6141      	1111.5935      	1111.6067      	1111.5587      	1111.5996      	1111.595       	1111.6199      	1111.6147      	1111.5852      	1111.5408      	1111.6105      	1111.5598      	1111.631       	1111.51        	1111.5322      	1111.5714      	1111.5181      	1111.4933      	1111.5796      	1111.4294      	1111.1409      	1111.3577      	1111.2753      	1111.3608      	1111.498       	1111.4388      	1111.5513      	1111.5199      	1111.5513      	1111.5282      	1111.4681      	1111.4327      	1111.4075      	
1111.527       	1111.5448      	1111.5065      	1111.5798      	1111.5857      	1111.5496      	1111.5868      	1111.5503      	1111.606       	1111.6099      	1111.5767      	1111.6069      	1111.6005      	1111.592       	1111.6299      	1111.606       	1111.6072      	1111.5598      	1111.5854      	1111.6743      	1111.6322      	1111.612       	1111.6222      	1111.6843      	1111.6359      	1111.6296      	1111.6248      	1111.6073      	1111.596       	1111.6655      	1111.6493      	1111.5947      	1111.6427      	1111.6047      	1111.648       	1111.6683      	1111.6799      	1111.6565      	1111.6638      	1111.6349      	1111.6681      	1111.7385      	1111.539       	1111.3495      	1111.6194      	1111.479       	1111.5308      	1111.5999      	1111.5656      	1111.5986      	1111.6223      	1111.6484      	1111.6403      	1111.6447      	1111.7039      	1111.6671      	1111.5885      	1111.6653      	1111.6714      	1111.5836      	1111.6658      	1111.6906      	1111.7905      	1111.9246      	1111.6643      	1111.5958      	1111.5717      	1111.6112      	1111.5793      	1111.6499      	1111.6472      	1111.569       	1111.5935      	1111.5383      	1111.5673      	1111.552       	1111.6356      	1111.5457      	1111.448       	1111.5865      	1111.525       	1111.5199      	1111.5033      	1111.4745      	1111.5659      	1111.5831      	1111.3442      	1111.0852      	1111.3153      	1111.3842      	1111.3245      	1111.4446      	1111.5057      	1111.509       	1111.4637      	1111.5278      	1111.4829      	1111.4426      	1111.498       	1111.467       	
1111.562       	1111.7234      	1111.6237      	1111.6582      	1111.6821      	1111.6726      	1111.6709      	1111.6827      	1111.664       	1111.689       	1111.6959      	1111.641       	1111.7234      	1111.6575      	1111.6678      	1111.6649      	1111.6736      	1111.6285      	1111.7218      	1111.6691      	1111.6492      	1111.657       	1111.6556      	1111.6431      	1111.6581      	1111.6013      	1111.638       	1111.6438      	1111.6202      	1111.6975      	1111.6581      	1111.6658      	1111.67        	1111.7491      	1111.6892      	1111.6663      	1111.7538      	1111.7563      	1111.7991      	1111.3472      	1111.54        	1111.4921      	1111.6077      	1111.6534      	1111.6337      	1111.7002      	1111.7749      	1111.7174      	1111.7527      	1111.6919      	1111.6821      	1111.6581      	1111.7112      	1111.5945      	1111.6661      	1111.6731      	1111.611       	1111.6365      	1111.6886      	1111.5881      	1111.7842      	1111.6288      	1111.9233      	1111.8912      	1111.9988      	1111.6447      	1111.5869      	1111.5958      	1111.565       	1111.602       	1111.5929      	1111.5956      	1111.6403      	1111.5757      	1111.5756      	1111.6173      	1111.5881      	1111.5562      	1111.611       	1111.6112      	1111.5736      	1111.5734      	1111.5845      	1111.6301      	1111.5731      	1111.572       	1111.4591      	1111.1661      	1111.3142      	1111.411       	1111.4026      	1111.4071      	1111.5237      	1111.55        	1111.4886      	1111.5542      	1111.5162      	1111.5822      	1111.5161      	1111.5381      	
1111.7197      	1111.8877      	1111.7598      	1111.7726      	1111.782       	1111.8         	1111.8127      	1111.802       	1111.7902      	1111.7849      	1111.8215      	1111.8647      	1111.8043      	1111.8407      	1111.83        	1111.8647      	1111.8376      	1111.8362      	1111.8458      	1111.8502      	1111.8208      	1111.8218      	1111.7737      	1111.8123      	1111.7731      	1111.8335      	1111.763       	1111.7509      	1111.8087      	1111.7831      	1111.8544      	1111.7052      	1111.8911      	1112.0522      	1111.5248      	1111.4673      	1111.7229      	1111.8198      	1111.737       	1111.675       	1111.8069      	1111.789       	1111.8223      	1111.8068      	1111.805       	1111.7761      	1111.7701      	1111.76        	1111.7499      	1111.7428      	1111.7456      	1111.7703      	1111.6726      	1111.7161      	1111.6719      	1111.6763      	1111.7162      	1111.728       	1111.7004      	1111.6896      	1111.786       	1111.8473      	1111.7612      	1111.9429      	1111.9661      	1111.6816      	1111.6509      	1111.6964      	1111.7185      	1111.7034      	1111.7173      	1111.7041      	1111.6747      	1111.6736      	1111.6384      	1111.6632      	1111.6833      	1111.6235      	1111.6367      	1111.647       	1111.6287      	1111.5924      	1111.6124      	1111.6222      	1111.6464      	1111.5818      	1111.7366      	1111.2279      	1111.2753      	1111.4186      	1111.4452      	1111.453       	1111.574       	1111.5641      	1111.5945      	1111.5784      	1111.6603      	1111.5339      	1111.3909      	1111.4841      	
1111.7861      	1111.7997      	1111.8351      	1111.7871      	1111.83        	1111.8358      	1111.8755      	1111.7789      	1111.8362      	1111.8422      	1111.854       	1111.8628      	1111.8663      	1111.8573      	1111.8508      	1111.8954      	1111.8622      	1111.7917      	1111.8639      	1111.8121      	1111.8313      	1111.8378      	1111.781       	1111.8622      	1111.7849      	1111.9098      	1111.8536      	1111.8837      	1111.8608      	1111.863       	1111.7628      	1111.8567      	1111.5924      	1111.8112      	1111.9227      	1111.7567      	1111.8756      	1111.9031      	1111.8733      	1111.8765      	1111.8798      	1111.8768      	1111.8302      	1111.8367      	1111.7987      	1111.8212      	1111.8333      	1111.8412      	1111.837       	1111.7866      	1111.7986      	1111.8518      	1111.8323      	1111.7683      	1111.821       	1111.8201      	1111.7726      	1111.8107      	1111.8159      	1111.6991      	1111.7742      	1111.7523      	1111.8202      	1112.107       	1112.1682      	1111.668       	1111.7815      	1111.7515      	1111.7534      	1111.762       	1111.7964      	1111.7118      	1111.72        	1111.7659      	1111.7323      	1111.7212      	1111.7308      	1111.6903      	1111.7363      	1111.7932      	1111.7332      	1111.7153      	1111.7307      	1111.6887      	1111.7375      	1111.6659      	1111.7893      	1111.427       	1111.2644      	1111.5256      	1111.5792      	1111.5867      	1111.7148      	1111.676       	1111.8097      	1111.7532      	1111.7682      	1111.7428      	1111.697       	1111.7483      	
1111.8015      	1111.6809      	1111.7175      	1111.7257      	1111.7106      	1111.7297      	1111.7178      	1111.7573      	1111.7268      	1111.7507      	1111.7313      	1111.783       	1111.6738      	1111.791       	1111.7056      	1111.7391      	1111.7083      	1111.7676      	1111.7063      	1111.7507      	1111.7917      	1111.7667      	1111.7767      	1111.6946      	1111.7814      	1111.7333      	1111.837       	1111.5737      	1111.3081      	1111.5375      	1111.6783      	1111.751       	1111.8533      	1111.7173      	1111.8295      	1111.8044      	1111.8685      	1111.7925      	1111.7806      	1111.8038      	1111.7878      	1111.8148      	1111.7255      	1111.7555      	1111.7548      	1111.7576      	1111.7239      	1111.7769      	1111.7098      	1111.7731      	1111.7317      	1111.7092      	1111.6796      	1111.745       	1111.711       	1111.7032      	1111.731       	1111.7557      	1111.7285      	1111.742       	1111.6193      	1111.644       	1111.8553      	1111.8143      	1112.0541      	1111.6487      	1111.6575      	1111.6168      	1111.6091      	1111.6019      	1111.658       	1111.6489      	1111.6183      	1111.6532      	1111.6259      	1111.6705      	1111.5823      	1111.6165      	1111.6603      	1111.6372      	1111.5509      	1111.6284      	1111.6282      	1111.5898      	1111.6434      	1111.565       	1111.5935      	1111.6378      	1111.2206      	1111.3606      	1111.5127      	1111.3674      	1111.5469      	1111.6941      	1111.6083      	1111.6825      	1111.6691      	1111.6458      	1111.632       	1111.782       	
1111.8503      	1111.878       	1111.841       	1111.8716      	1111.8816      	1111.9052      	1111.859       	1111.9312      	1111.8789      	1111.8602      	1111.8763      	1111.8812      	1111.8533      	1111.8378      	1111.904       	1111.8608      	1111.8864      	1111.8563      	1111.8564      	1111.9065      	1111.8755      	1111.8984      	1111.8339      	1111.8458      	1111.9683      	1111.9769      	1111.4799      	1111.5271      	1111.624       	1111.884       	1111.9216      	1111.9031      	1111.9241      	1111.9133      	1111.8925      	1111.9128      	1111.8972      	1111.8993      	1111.9109      	1111.8899      	1111.8925      	1111.836       	1111.836       	1111.8549      	1111.8591      	1111.8663      	1111.7954      	1111.8107      	1111.7913      	1111.7874      	1111.7217      	1111.7668      	1111.7277      	1111.7343      	1111.7166      	1111.74        	1111.6912      	1111.7864      	1111.7042      	1111.6998      	1111.6917      	1111.6931      	1111.7893      	1111.7937      	1111.9749      	1111.8895      	1111.7234      	1111.7183      	1111.665       	1111.7051      	1111.6884      	1111.7158      	1111.6626      	1111.6573      	1111.6548      	1111.6385      	1111.6366      	1111.6406      	1111.6643      	1111.5712      	1111.6046      	1111.5966      	1111.6113      	1111.5996      	1111.6263      	1111.6718      	1111.61        	1111.6516      	1111.1902      	1111.4806      	1111.4507      	1111.4572      	1111.53        	1111.6794      	1111.6345      	1111.7052      	1111.7631      	1111.5461      	1111.616       	1111.7478      	
1112.1467      	1112.1323      	1112.1154      	1112.1298      	1112.1432      	1112.1422      	1112.159       	1112.1498      	1112.1708      	1112.1616      	1112.1456      	1112.0989      	1112.1938      	1112.1066      	1112.1416      	1112.0466      	1112.1144      	1112.0917      	1112.1184      	1112.1102      	1112.1125      	1112.0751      	1112.0734      	1112.1343      	1112.2289      	1111.5745      	1111.8058      	1111.8708      	1111.9764      	1112.1145      	1112.1466      	1112.1718      	1112.1165      	1112.1398      	1112.0669      	1112.1193      	1112.0914      	1112.0782      	1112.0431      	1112.0659      	1112.0708      	1112.0734      	1112.0522      	1111.9946      	1111.9924      	1112.005       	1112.0093      	1111.989       	1111.9921      	1111.9823      	1112.0161      	1111.9396      	1111.9353      	1111.9775      	1111.9395      	1111.9575      	1111.9492      	1111.9377      	1111.9725      	1111.964       	1111.8923      	1111.9829      	1111.9257      	1112.021       	1112.3102      	1112.1829      	1111.9146      	1111.9635      	1111.9032      	1111.9304      	1111.8995      	1111.9155      	1111.8882      	1111.9163      	1111.8713      	1111.9598      	1111.9009      	1111.8833      	1111.8817      	1111.8713      	1111.9098      	1111.8712      	1111.8861      	1111.8779      	1111.8651      	1111.821       	1111.8458      	1111.9949      	1111.4194      	1111.5458      	1111.68        	1111.711       	1111.7251      	1111.9088      	1111.8658      	1111.9327      	1111.9199      	1111.8422      	1111.8318      	1111.8694      	
1112.4402      	1112.4126      	1112.404       	1112.4269      	1112.4832      	1112.3678      	1112.3982      	1112.4265      	1112.4324      	1112.387       	1112.4043      	1112.3947      	1112.3987      	1112.4241      	1112.3462      	1112.405       	1112.3585      	1112.4113      	1112.4104      	1112.3401      	1112.4938      	1112.3403      	1112.3331      	1112.4177      	1112.3833      	1111.9398      	1112.1093      	1112.2316      	1112.2231      	1112.3142      	1112.3696      	1112.3755      	1112.363       	1112.3462      	1112.4022      	1112.3639      	1112.3176      	1112.3547      	1112.3508      	1112.327       	1112.3221      	1112.3257      	1112.3225      	1112.2716      	1112.3103      	1112.2511      	1112.2786      	1112.2604      	1112.2395      	1112.2988      	1112.3236      	1112.197       	1112.2483      	1112.2046      	1112.2452      	1112.2108      	1112.2496      	1112.221       	1112.2361      	1112.1521      	1112.1797      	1112.2458      	1112.2078      	1112.2793      	1112.6116      	1112.5233      	1112.114       	1112.1846      	1112.2263      	1112.1418      	1112.134       	1112.1392      	1112.1329      	1112.159       	1112.1216      	1112.1257      	1112.1677      	1112.112       	1112.1089      	1112.0906      	1112.1305      	1112.0791      	1112.1187      	1112.1207      	1112.0569      	1112.0695      	1112.1083      	1112.1089      	1111.9156      	1111.6798      	1111.9484      	1112.1082      	1111.9413      	1112.0657      	1112.1643      	1112.2017      	1112.2278      	1112.1943      	1112.1969      	1112.2249      	
1112.6909      	1112.6722      	1112.6718      	1112.6473      	1112.6831      	1112.6593      	1112.6472      	1112.6952      	1112.6453      	1112.612       	1112.6759      	1112.6243      	1112.602       	1112.664       	1112.5931      	1112.5806      	1112.5497      	1112.6306      	1112.5969      	1112.6248      	1112.6422      	1112.6239      	1112.6171      	1112.6124      	1112.5585      	1112.2139      	1112.4373      	1112.4603      	1112.523       	1112.4884      	1112.6705      	1112.5562      	1112.6055      	1112.5697      	1112.5507      	1112.561       	1112.5458      	1112.5052      	1112.5122      	1112.5122      	1112.5405      	1112.4631      	1112.4774      	1112.4624      	1112.4724      	1112.5046      	1112.4318      	1112.4681      	1112.4418      	1112.4956      	1112.4053      	1112.4507      	1112.4646      	1112.4757      	1112.4528      	1112.482       	1112.5009      	1112.4476      	1112.4977      	1112.4816      	1112.4604      	1112.4003      	1112.5032      	1112.53        	1112.6852      	1112.9364      	1112.5375      	1112.4329      	1112.4563      	1112.356       	1112.4384      	1112.4335      	1112.3954      	1112.3859      	1112.3948      	1112.3967      	1112.3613      	1112.3899      	1112.4055      	1112.386       	1112.3833      	1112.3724      	1112.3325      	1112.425       	1112.3937      	1112.378       	1112.4185      	1112.3944      	1112.4666      	1111.9047      	1112.2257      	1112.3141      	1112.3439      	1112.4781      	1112.5408      	1112.5482      	1112.5225      	1112.494       	1112.4252      	1112.4711      	
1112.7839      	1112.7179      	1112.7335      	1112.7772      	1112.7352      	1112.7407      	1112.7366      	1112.6812      	1112.7616      	1112.7032      	1112.6536      	1112.6935      	1112.6951      	1112.6809      	1112.7019      	1112.6013      	1112.6923      	1112.7449      	1112.569       	1112.7013      	1112.7284      	1112.6875      	1112.6565      	1112.6339      	1112.8448      	1112.1396      	1112.5155      	1112.422       	1112.5363      	1112.5421      	1112.6777      	1112.6034      	1112.7332      	1112.6571      	1112.6844      	1112.6437      	1112.6577      	1112.5792      	1112.6217      	1112.6194      	1112.5802      	1112.5428      	1112.5635      	1112.5441      	1112.5382      	1112.5558      	1112.5851      	1112.5814      	1112.5656      	1112.5072      	1112.5875      	1112.5278      	1112.5026      	1112.6779      	1112.5798      	1112.4131      	1112.6877      	1112.4447      	1112.5745      	1112.486       	1112.557       	1112.3796      	1112.5505      	1112.6151      	1112.7097      	1112.8354      	1112.7417      	1112.5225      	1112.5073      	1112.4767      	1112.5096      	1112.4758      	1112.466       	1112.4675      	1112.4779      	1112.4614      	1112.4891      	1112.421       	1112.4954      	1112.4623      	1112.432       	1112.4775      	1112.4976      	1112.4624      	1112.5093      	1112.479       	1112.4602      	1112.5022      	1112.5443      	1111.9873      	1112.261       	1112.4794      	1112.4462      	1112.4023      	1112.6079      	1112.6941      	1112.3457      	1112.5813      	1112.6589      	1112.6454      	
1112.8099      	1112.8103      	1112.7844      	1112.7797      	1112.737       	1112.7437      	1112.731       	1112.7673      	1112.741       	1112.7145      	1112.6918      	1112.7352      	1112.6907      	1112.7148      	1112.7092      	1112.7649      	1112.6749      	1112.7312      	1112.7283      	1112.7434      	1112.7274      	1112.739       	1112.756       	1112.8392      	1112.8192      	1112.4304      	1112.5208      	1112.6257      	1112.6908      	1112.6667      	1112.8044      	1112.7075      	1112.7567      	1112.7449      	1112.7489      	1112.7167      	1112.6576      	1112.7593      	1112.6942      	1112.7194      	1112.6398      	1112.6433      	1112.6755      	1112.6235      	1112.6652      	1112.6738      	1112.5614      	1112.6619      	1112.5891      	1112.6562      	1112.5565      	1112.5948      	1112.6627      	1112.5148      	1112.663       	1112.5989      	1112.5642      	1112.5636      	1112.8497      	1112.4843      	1112.5999      	1112.5477      	1112.7257      	1112.5712      	1112.729       	1112.9501      	1112.9078      	1112.597       	1112.5327      	1112.5712      	1112.4701      	1112.5427      	1112.5079      	1112.489       	1112.5265      	1112.5337      	1112.4895      	1112.4855      	1112.5176      	1112.4742      	1112.4974      	1112.4869      	1112.5017      	1112.5374      	1112.5481      	1112.578       	1112.4838      	1112.5352      	1112.5737      	1112.1864      	1112.3317      	1112.3398      	1112.4907      	1112.4904      	1112.5936      	1112.7745      	1112.7502      	1112.6863      	1112.5194      	1112.467       	
1112.9042      	1112.72        	1112.8387      	1112.8354      	1112.8212      	1112.8618      	1112.763       	1112.7991      	1112.8221      	1112.8367      	1112.7839      	1112.7805      	1112.8455      	1112.7574      	1112.8154      	1112.7571      	1112.7913      	1112.7883      	1112.8026      	1112.7651      	1112.8859      	1112.7695      	1112.8962      	1112.7905      	1112.84        	1112.6973      	1112.3992      	1112.5806      	1112.6376      	1112.6672      	1112.7616      	1112.8452      	1112.8148      	1112.7786      	1112.8223      	1112.7775      	1112.7529      	1112.7556      	1112.8634      	1112.7196      	1112.7802      	1112.6838      	1112.6902      	1112.6602      	1112.6263      	1112.6658      	1112.664       	1112.6342      	1112.671       	1112.7192      	1112.6307      	1112.7483      	1112.7179      	1112.7725      	1112.6438      	1112.6724      	1112.8054      	1112.8534      	1112.5758      	1112.6782      	1112.7952      	1112.6909      	1112.7903      	1112.7823      	1112.7671      	1113.053       	1112.9514      	1112.7539      	1112.7115      	1112.6746      	1112.6564      	1112.7435      	1112.6782      	1112.6737      	1112.704       	1112.6201      	1112.6769      	1112.6282      	1112.6798      	1112.6742      	1112.6381      	1112.6322      	1112.7065      	1112.6453      	1112.7498      	1112.616       	1112.6932      	1112.6881      	1112.7639      	1112.53        	1112.3413      	1112.5266      	1112.7632      	1112.5891      	1112.6633      	1112.7         	1112.8619      	1112.6053      	1112.6133      	1112.8208      	
1112.971       	1113.0841      	1113.1046      	1112.8694      	1112.9167      	1112.9048      	1112.8749      	1112.8972      	1112.8391      	1112.8955      	1112.8496      	1112.8701      	1112.8726      	1112.8494      	1112.786       	1112.8817      	1112.8063      	1112.8362      	1112.9012      	1112.8647      	1112.8206      	1112.8771      	1112.8228      	1112.8293      	1112.839       	1112.8928      	1112.3148      	1112.6536      	1112.661       	1112.72        	1112.745       	1112.8524      	1112.7893      	1112.8378      	1112.9725      	1112.6534      	1112.6824      	1112.7096      	1112.9133      	1112.7585      	1112.7596      	1112.7573      	1112.7517      	1112.6648      	1112.759       	1112.8357      	1112.7644      	1112.829       	1112.7733      	1112.77        	1112.8403      	1112.7938      	1112.789       	1112.8145      	1112.8445      	1112.7745      	1112.9781      	1112.5922      	1112.6448      	1112.8494      	1112.8137      	1112.7568      	1112.7338      	1112.9917      	1112.7937      	1113.108       	1113.0245      	1112.8041      	1112.7185      	1112.7457      	1112.8064      	1112.6958      	1112.7426      	1112.743       	1112.6694      	1112.7253      	1112.636       	1112.7065      	1112.7169      	1112.6575      	1112.7004      	1112.6743      	1112.7228      	1112.7034      	1112.6931      	1112.6643      	1112.7102      	1112.7202      	1112.7408      	1112.7068      	1112.3344      	1112.5831      	1112.7         	1112.5691      	1112.6589      	1112.8325      	1112.8176      	1112.8558      	1112.8704      	1112.7588      	
1113.2117      	1113.2684      	1113.364       	1113.5194      	1113.1141      	1113.0867      	1113.0314      	1113.0585      	1113.0833      	1113.0674      	1113.0498      	1113.0942      	1113.0819      	1113.0569      	1113.0845      	1113.0562      	1113.0792      	1113.0825      	1113.0627      	1113.094       	1113.1003      	1113.1375      	1113.0887      	1113.1112      	1113.1294      	1113.2053      	1112.6945      	1112.7966      	1112.9806      	1113.0046      	1112.8502      	1113.0173      	1113.1022      	1113.1174      	1113.0253      	1113.0614      	1113.0374      	1113.0093      	1113.0349      	1112.9893      	1113.0472      	1113.0355      	1113.036       	1112.9801      	1112.9907      	1113.005       	1112.9423      	1112.9725      	1112.9589      	1112.9884      	1113.0016      	1113.019       	1112.9626      	1112.9513      	1113.053       	1112.9253      	1112.957       	1113.0111      	1112.9226      	1112.9937      	1112.9913      	1113.0007      	1112.8646      	1112.9872      	1113.0903      	1113.1504      	1113.1968      	1113.0684      	1112.8845      	1112.88        	1112.8544      	1112.8717      	1112.8568      	1112.8733      	1112.8424      	1112.8793      	1112.8628      	1112.8381      	1112.8737      	1112.8688      	1112.7935      	1112.8411      	1112.8042      	1112.8527      	1112.8616      	1112.8435      	1112.8551      	1112.913       	1112.9263      	1113.0974      	1112.4302      	1112.674       	1112.7416      	1112.8165      	1112.9238      	1113.0457      	1113.0378      	1112.9927      	1112.906       	1112.8286      	
1113.4543      	1113.5057      	1113.7522      	1113.963       	1113.4369      	1113.467       	1113.4302      	1113.4451      	1113.329       	1113.4067      	1113.3743      	1113.303       	1113.4347      	1113.3497      	1113.3729      	1113.33        	1113.3646      	1113.3348      	1113.3921      	1113.4121      	1113.3701      	1113.3732      	1113.3481      	1113.497       	1113.3728      	1113.4626      	1113.0969      	1112.9364      	1113.1982      	1113.1368      	1113.0242      	1113.2444      	1113.3495      	1113.1284      	1113.2648      	1113.1941      	1113.194       	1113.1771      	1113.25        	1113.1431      	1113.132       	1113.2064      	1113.1268      	1113.2771      	1113.1771      	1113.2019      	1113.1648      	1113.2046      	1113.179       	1113.1456      	1113.1965      	1113.2233      	1113.1295      	1113.0891      	1113.1567      	1113.1772      	1113.1798      	1113.1418      	1113.1354      	1113.1375      	1113.2042      	1113.2338      	1113.1897      	1113.186       	1113.2654      	1113.3116      	1113.6003      	1113.3544      	1113.1698      	1113.1049      	1113.0985      	1113.1001      	1113.0688      	1113.1288      	1113.099       	1113.1403      	1113.1335      	1113.0884      	1113.0988      	1113.0933      	1113.0769      	1113.132       	1113.0826      	1113.1296      	1113.1504      	1113.1135      	1113.1958      	1113.1459      	1113.2059      	1113.3287      	1112.5969      	1112.8989      	1113.0725      	1113.1492      	1113.1536      	1113.2573      	1113.2977      	1113.2083      	1113.0458      	1113.0892      	
1113.7924      	1113.7843      	1113.8947      	1114.1799      	1113.865       	1113.6938      	1113.7672      	1113.6824      	1113.7391      	1113.7374      	1113.5443      	1113.7761      	1113.7021      	1113.6884      	1113.6198      	1113.7502      	1113.6837      	1113.5549      	1113.7556      	1113.6392      	1113.7382      	1113.7019      	1113.6829      	1113.6985      	1113.7222      	1113.7181      	1113.752       	1113.2744      	1113.3497      	1113.4591      	1113.4429      	1113.6521      	1113.4968      	1113.618       	1113.5782      	1113.591       	1113.5679      	1113.5542      	1113.5752      	1113.5675      	1113.568       	1113.5526      	1113.5753      	1113.5704      	1113.5767      	1113.5461      	1113.6199      	1113.5406      	1113.6569      	1113.576       	1113.5995      	1113.5695      	1113.6516      	1113.538       	1113.5938      	1113.5964      	1113.6038      	1113.5507      	1113.5547      	1113.6217      	1113.5343      	1113.6992      	1113.4532      	1113.5773      	1113.631       	1113.6356      	1113.8615      	1114.0493      	1113.5834      	1113.5104      	1113.4836      	1113.4696      	1113.4329      	1113.4503      	1113.4741      	1113.5302      	1113.4425      	1113.4976      	1113.5142      	1113.4734      	1113.4979      	1113.4844      	1113.5627      	1113.5139      	1113.5333      	1113.4762      	1113.48        	1113.5251      	1113.5273      	1113.6525      	1113.2637      	1113.2592      	1113.3888      	1113.4563      	1113.4915      	1113.6505      	1113.673       	1113.6455      	1113.627       	1113.6561      	
1114.2318      	1114.2368      	1114.2437      	1114.5112      	1114.3235      	1114.2332      	1114.2264      	1114.1144      	1114.267       	1114.0581      	1114.1409      	1114.2203      	1114.1343      	1113.9932      	1114.198       	1114.167       	1114.0916      	1113.9132      	1114.2583      	1114.1311      	1114.1678      	1114.0851      	1114.1448      	1114.1798      	1114.0975      	1114.0839      	1114.2849      	1113.7002      	1113.75        	1113.9695      	1114.0181      	1114.038       	1114.0751      	1114.0795      	1114.0726      	1114.0729      	1114.0602      	1113.9838      	1114.022       	1114.031       	1113.9657      	1114.0026      	1113.9962      	1114.0148      	1113.9388      	1114.0028      	1113.9642      	1113.9825      	1113.9857      	1113.9393      	1113.9795      	1114.0187      	1114.0139      	1114.0048      	1114.0151      	1114.03        	1114.0009      	1114.0503      	1113.9452      	1114.0317      	1113.9869      	1113.9982      	1113.978       	1114.0466      	1113.9836      	1114.0409      	1114.1914      	1114.3546      	1114.0127      	1113.9368      	1113.9171      	1113.8997      	1113.9325      	1113.9512      	1113.9012      	1113.9133      	1113.9432      	1113.8612      	1113.9397      	1113.9384      	1113.9349      	1113.9271      	1113.9963      	1113.914       	1113.9933      	1113.9614      	1113.9417      	1113.9418      	1113.9067      	1113.9354      	1114.0521      	1113.54        	1113.84        	1113.9572      	1113.8856      	1113.9784      	1114.0903      	1114.062       	1113.9772      	1113.9429      	
1114.1776      	1114.1497      	1114.1962      	1114.4989      	1114.3455      	1114.0242      	1114.0219      	1114.1542      	1114.0465      	1114.0664      	1114.0742      	1114.0513      	1114.0552      	1114.0596      	1114.1068      	1114.0848      	1114.0754      	1114.0789      	1114.0613      	1114.132       	1114.049       	1114.1412      	1114.0835      	1114.1368      	1114.0574      	1114.1575      	1114.1134      	1113.9165      	1113.7927      	1114.0226      	1113.8723      	1113.9529      	1114.035       	1114.1111      	1114.0531      	1114.0983      	1114.029       	1114.06        	1114.1072      	1114.078       	1114.1277      	1114.0525      	1114.0834      	1114.1129      	1114.0681      	1114.1353      	1114.0841      	1114.1277      	1114.0857      	1114.1445      	1114.0702      	1114.1958      	1114.0775      	1114.1174      	1114.068       	1114.1874      	1114.1382      	1114.1737      	1114.0952      	1114.1912      	1114.1752      	1114.1757      	1114.1931      	1114.2317      	1114.1838      	1114.1661      	1114.2971      	1114.5386      	1114.3345      	1114.1472      	1114.09        	1114.1106      	1114.1321      	1114.1279      	1114.0706      	1114.1072      	1114.0753      	1114.1609      	1114.1628      	1114.0881      	1114.1506      	1114.1509      	1114.2085      	1114.1549      	1114.2084      	1114.173       	1114.2318      	1114.2109      	1114.2289      	1114.2827      	1114.3712      	1113.7899      	1114.06        	1114.1394      	1114.0637      	1114.2087      	1114.34        	1114.2289      	1114.1847      	1114.3195      	
1113.4202      	1113.3225      	1113.4244      	1113.6163      	1113.692       	1113.2955      	1113.37        	1113.3883      	1113.3668      	1113.3427      	1113.3889      	1113.4204      	1113.3667      	1113.4583      	1113.248       	1113.3225      	1113.5233      	1113.4275      	1113.3741      	1113.4501      	1113.387       	1113.4354      	1113.4484      	1113.49        	1113.4518      	1113.5138      	1113.5532      	1113.4208      	1112.9441      	1113.2712      	1113.3342      	1113.2501      	1113.5044      	1113.4495      	1113.4818      	1113.5101      	1113.3881      	1113.4905      	1113.435       	1113.5502      	1113.4564      	1113.3859      	1113.5148      	1113.5018      	1113.5073      	1113.5358      	1113.5125      	1113.5173      	1113.507       	1113.5825      	1113.4178      	1113.5237      	1113.5255      	1113.5282      	1113.5123      	1113.5535      	1113.5286      	1113.5116      	1113.5641      	1113.5468      	1113.5887      	1113.5311      	1113.6213      	1113.6327      	1113.7324      	1113.5917      	1113.687       	1113.8792      	1113.8097      	1113.5966      	1113.5349      	1113.6127      	1113.5187      	1113.6238      	1113.5857      	1113.5936      	1113.5894      	1113.5889      	1113.6151      	1113.628       	1113.6838      	1113.519       	1113.715       	1113.7021      	1113.7351      	1113.758       	1113.7554      	1113.7839      	1113.7533      	1113.7888      	1113.8898      	1113.3901      	1113.5432      	1113.5968      	1113.637       	1113.7451      	1113.8787      	1113.8293      	1113.8827      	1113.8721      	
1112.9407      	1113.0447      	1113.0496      	1113.079       	1113.3245      	1113.0962      	1112.9377      	1112.9442      	1112.9382      	1112.9171      	1112.909       	1112.9429      	1112.914       	1112.9904      	1112.9417      	1112.8466      	1112.9653      	1112.9178      	1112.9451      	1112.9586      	1112.975       	1112.9199      	1112.9846      	1112.9786      	1112.8765      	1112.9518      	1112.9685      	1112.9052      	1112.542       	1112.7014      	1112.7173      	1112.7224      	1112.9432      	1112.9989      	1112.8937      	1112.9159      	1112.8147      	1112.9832      	1112.9136      	1112.818       	1112.8365      	1112.8533      	1112.9246      	1112.9187      	1112.8671      	1112.924       	1112.9802      	1112.8391      	1112.976       	1112.8875      	1113.0376      	1112.9114      	1112.9775      	1113.0066      	1112.9966      	1113.0853      	1112.8892      	1112.8757      	1113.0654      	1112.8452      	1112.8352      	1112.9924      	1113.065       	1112.905       	1113.0345      	1113.089       	1112.9977      	1113.2457      	1113.2749      	1112.8268      	1112.8951      	1112.9087      	1112.9369      	1112.8777      	1112.9172      	1112.8986      	1112.9636      	1112.9513      	1112.9525      	1112.9666      	1112.9673      	1112.945       	1112.9564      	1112.9802      	1112.9985      	1113.0176      	1113.0022      	1113.038       	1113.0619      	1112.9684      	1113.1299      	1112.8923      	1112.632       	1112.9133      	1112.961       	1113.0403      	1113.1653      	1113.0428      	1113.0311      	1113.1775      	
1113.3866      	1113.4048      	1113.3502      	1113.4772      	1113.7115      	1113.6074      	1113.311       	1113.3368      	1113.2886      	1113.3411      	1113.2399      	1113.2476      	1113.1757      	1113.2177      	1113.2692      	1113.1805      	1113.2393      	1113.3079      	1113.2008      	1113.2169      	1113.3759      	1113.2673      	1113.3057      	1113.2437      	1113.2937      	1113.3042      	1113.3202      	1113.4032      	1112.6543      	1112.9358      	1113.0946      	1113.1099      	1113.2013      	1113.2657      	1113.1342      	1113.2251      	1113.254       	1113.2766      	1113.05        	1113.0747      	1113.3624      	1113.24        	1113.2205      	1113.2917      	1113.2587      	1113.3035      	1113.1433      	1113.2487      	1113.2832      	1113.2858      	1113.2827      	1113.1995      	1113.3458      	1113.2673      	1113.2657      	1113.2458      	1113.269       	1113.2449      	1113.2477      	1113.284       	1113.2161      	1113.2632      	1113.2979      	1113.2002      	1113.2004      	1113.2968      	1113.3241      	1113.4478      	1113.5773      	1113.3254      	1113.1782      	1113.2144      	1113.2072      	1113.1394      	1113.27        	1113.1819      	1113.1942      	1113.1392      	1113.1324      	1113.2251      	1113.1798      	1113.1364      	1113.116       	1113.1707      	1113.1345      	1113.1755      	1113.2029      	1113.1511      	1113.2443      	1113.1975      	1113.2157      	1113.1151      	1112.7417      	1113.06        	1113.1809      	1113.1675      	1113.0503      	1113.053       	1113.2802      	1113.2742      	
1113.8262      	1113.823       	1113.8339      	1113.9283      	1114.1599      	1114.1406      	1113.7628      	1113.7856      	1113.7878      	1113.8464      	1113.7642      	1113.7928      	1113.7968      	1113.8142      	1113.7617      	1113.8721      	1113.6831      	1113.7875      	1113.7723      	1113.7168      	1113.7738      	1113.699       	1113.763       	1113.7712      	1113.7288      	1113.7354      	1113.7156      	1113.947       	1113.245       	1113.4126      	1113.5887      	1113.5745      	1113.7238      	1113.5845      	1113.7169      	1113.772       	1113.6581      	1113.7472      	1113.8182      	1113.627       	1113.7576      	1113.7313      	1113.6669      	1113.7684      	1113.6772      	1113.77        	1113.7238      	1113.7537      	1113.7847      	1113.7433      	1113.7648      	1113.8086      	1113.7677      	1113.7854      	1113.7264      	1113.7496      	1113.7817      	1113.7703      	1113.7802      	1113.7444      	1113.7659      	1113.7601      	1113.7483      	1113.6897      	1113.6993      	1113.7722      	1113.8113      	1113.8771      	1114.1782      	1113.8854      	1113.6658      	1113.7079      	1113.6963      	1113.6675      	1113.699       	1113.661       	1113.6818      	1113.7129      	1113.6975      	1113.7452      	1113.7108      	1113.69        	1113.7297      	1113.7557      	1113.7131      	1113.7499      	1113.7537      	1113.7684      	1113.7338      	1113.7108      	1113.7542      	1113.7958      	1113.5138      	1113.7118      	1113.7151      	1113.5371      	1113.5898      	1113.8973      	1113.7277      	1113.7983      	
1114.1594      	1114.0624      	1114.1465      	1114.2609      	1114.4283      	1114.422       	1114.1527      	1114.0983      	1114.0992      	1114.1289      	1114.0763      	1114.0717      	1114.1343      	1114.1284      	1114.3281      	1113.9988      	1113.982       	1114.1654      	1114.1102      	1114.0427      	1114.1238      	1114.0907      	1114.0642      	1114.0988      	1113.9814      	1114.088       	1114.0812      	1114.1847      	1113.8195      	1113.5616      	1113.7732      	1113.8795      	1113.9011      	1114.0399      	1114.1036      	1114.0237      	1114.0597      	1114.0925      	1114.0325      	1114.092       	1114.0386      	1114.1212      	1114.1154      	1114.0769      	1114.1274      	1114.093       	1114.1499      	1114.1548      	1114.1553      	1114.161       	1114.2092      	1114.2103      	1114.2177      	1114.2136      	1114.1116      	1114.1387      	1114.1707      	1114.1556      	1114.1313      	1114.1844      	1114.204       	1114.2186      	1114.1947      	1114.2423      	1114.0884      	1114.0485      	1114.1506      	1114.321       	1114.3195      	1114.4708      	1114.0591      	1114.0315      	1114.0417      	1114.0586      	1114.0409      	1114.0718      	1114.0328      	1114.0587      	1114.0333      	1114.1116      	1114.0514      	1114.093       	1114.0842      	1114.1323      	1114.1606      	1114.1024      	1114.142       	1114.145       	1114.149       	1114.1736      	1114.1764      	1114.2008      	1114.088       	1113.9955      	1113.9009      	1114.045       	1114.0999      	1114.1409      	1114.218       	1114.2528      	
1114.3116      	1114.2798      	1114.4058      	1114.2654      	1114.504       	1114.5978      	1114.449       	1114.2847      	1114.3054      	1114.3466      	1114.302       	1114.3053      	1114.3113      	1114.4186      	1114.3208      	1114.1791      	1114.3616      	1114.342       	1114.3855      	1114.3042      	1114.3411      	1114.2474      	1114.2838      	1114.2799      	1114.2756      	1114.2886      	1114.2649      	1114.3297      	1114.2585      	1113.6818      	1114.0251      	1114.145       	1114.2115      	1114.3849      	1114.0897      	1114.1345      	1114.3406      	1114.2216      	1114.1844      	1114.3132      	1114.283       	1114.2146      	1114.3527      	1114.3107      	1114.2509      	1114.348       	1114.3307      	1114.3397      	1114.3462      	1114.3107      	1114.3374      	1114.3286      	1114.305       	1114.3326      	1114.3293      	1114.3907      	1114.3861      	1114.3466      	1114.3376      	1114.3488      	1114.3027      	1114.3679      	1114.3682      	1114.3097      	1114.4786      	1114.2322      	1114.2137      	1114.3998      	1114.6804      	1114.648       	1114.3003      	1114.3008      	1114.2998      	1114.2429      	1114.2667      	1114.2982      	1114.3179      	1114.2928      	1114.3326      	1114.2974      	1114.3191      	1114.3368      	1114.3434      	1114.3771      	1114.3982      	1114.342       	1114.3171      	1114.4215      	1114.3713      	1114.4116      	1114.394       	1114.4001      	1114.45        	1114.4222      	1114.1237      	1114.1946      	1114.3905      	1114.394       	1114.535       	1114.7091      	
1114.2067      	1114.1202      	1114.1782      	1114.177       	1114.2267      	1114.6111      	1114.401       	1114.1317      	1114.1606      	1114.1794      	1114.1459      	1114.1316      	1114.1915      	1114.1934      	1114.1448      	1114.1669      	1114.1946      	1114.1573      	1114.1862      	1114.1516      	1114.2352      	1114.1382      	1114.2031      	1114.1437      	1114.1888      	1114.192       	1114.1974      	1114.1952      	1114.3557      	1113.7229      	1113.9336      	1113.9781      	1113.9905      	1114.1499      	1114.1964      	1114.1499      	1114.2344      	1114.283       	1114.1907      	1114.2458      	1114.2595      	1114.2311      	1114.3134      	1114.1997      	1114.2462      	1114.372       	1114.2908      	1114.2648      	1114.308       	1114.3147      	1114.3417      	1114.3667      	1114.3597      	1114.3499      	1114.3113      	1114.3528      	1114.349       	1114.4009      	1114.3856      	1114.3448      	1114.4097      	1114.3478      	1114.34        	1114.3644      	1114.3192      	1114.4011      	1114.3254      	1114.4778      	1114.4509      	1114.6892      	1114.5374      	1114.3113      	1114.3202      	1114.3406      	1114.3656      	1114.3829      	1114.4304      	1114.327       	1114.3662      	1114.4806      	1114.4327      	1114.4136      	1114.446       	1114.4663      	1114.425       	1114.435       	1114.5161      	1114.4438      	1114.4978      	1114.4642      	1114.4768      	1114.4854      	1114.532       	1114.5022      	1114.4845      	1114.4626      	1114.3795      	1114.5376      	1114.5166      	1114.4905      	
1113.8733      	1113.8553      	1113.945       	1113.8352      	1113.9088      	1114.0945      	1114.2839      	1113.8295      	1113.8369      	1113.8776      	1113.8419      	1113.8749      	1113.8367      	1113.8015      	1113.8419      	1113.8264      	1113.8442      	1113.8771      	1113.8534      	1113.8607      	1113.8353      	1113.8812      	1113.8422      	1113.8854      	1113.8896      	1113.8386      	1113.8849      	1113.8938      	1113.98        	1113.7046      	1113.4891      	1113.7683      	1113.6838      	1113.801       	1113.9005      	1113.9735      	1113.9006      	1113.9991      	1113.9545      	1113.9783      	1113.962       	1114.0021      	1113.9811      	1113.9816      	1114.0901      	1114.129       	1114.0409      	1114.0499      	1114.007       	1114.1057      	1114.0612      	1114.0986      	1114.0259      	1114.0745      	1114.1138      	1114.0411      	1114.1033      	1114.0331      	1114.041       	1114.1315      	1114.0997      	1114.0854      	1114.1073      	1114.0814      	1114.1466      	1114.0109      	1114.1166      	1114.143       	1114.2902      	1114.4194      	1114.3898      	1114.1252      	1114.1046      	1114.1036      	1114.1105      	1114.1818      	1114.1665      	1114.1042      	1114.1538      	1114.1603      	1114.1782      	1114.1925      	1114.2153      	1114.1569      	1114.2395      	1114.2128      	1114.2491      	1114.2528      	1114.2802      	1114.218       	1114.2157      	1114.2638      	1114.2067      	1114.2196      	1114.2888      	1114.147       	1114.1259      	1114.1653      	1114.2357      	1114.2144      	
1113.5742      	1113.6438      	1113.5176      	1113.7703      	1113.6497      	1113.7726      	1114.046       	1113.7346      	1113.618       	1113.5847      	1113.6134      	1113.6497      	1113.605       	1113.6111      	1113.7167      	1113.5679      	1113.583       	1113.5934      	1113.6089      	1113.636       	1113.5682      	1113.6172      	1113.6663      	1113.545       	1113.6276      	1113.5393      	1113.5801      	1113.6401      	1113.6824      	1113.595       	1113.2136      	1113.3116      	1113.4229      	1113.5432      	1113.6917      	1113.635       	1113.5822      	1113.6882      	1113.5681      	1113.79        	1113.6543      	1113.6663      	1113.6934      	1113.6915      	1113.7083      	1113.7472      	1113.7227      	1113.7302      	1113.7306      	1113.7568      	1113.7313      	1113.7454      	1113.8038      	1113.7241      	1113.7424      	1113.7489      	1113.7391      	1113.7336      	1113.7684      	1113.795       	1113.7913      	1113.7977      	1113.7959      	1113.7388      	1113.7882      	1113.7373      	1113.78        	1113.7833      	1113.9053      	1114.0522      	1114.0784      	1113.7681      	1113.7264      	1113.723       	1113.7476      	1113.7766      	1113.7307      	1113.7424      	1113.7578      	1113.8314      	1113.7823      	1113.8419      	1113.8385      	1113.8046      	1113.8339      	1113.8551      	1113.8821      	1113.8561      	1113.87        	1113.8597      	1113.815       	1113.842       	1113.8623      	1113.8696      	1113.839       	1113.821       	1113.8322      	1113.7338      	1113.6997      	1113.8192      	
1113.5292      	1113.4675      	1113.4718      	1113.5681      	1113.4988      	1113.7362      	1113.7173      	1113.7247      	1113.436       	1113.5028      	1113.5167      	1113.4989      	1113.519       	1113.5282      	1113.4653      	1113.4797      	1113.4827      	1113.5295      	1113.5038      	1113.4868      	1113.5233      	1113.5134      	1113.5299      	1113.547       	1113.5542      	1113.5591      	1113.4375      	1113.5879      	1113.5476      	1113.5248      	1113.0421      	1113.4135      	1113.3932      	1113.4114      	1113.5895      	1113.6201      	1113.577       	1113.588       	1113.5795      	1113.6255      	1113.6307      	1113.622       	1113.6208      	1113.6823      	1113.6095      	1113.6746      	1113.7102      	1113.7031      	1113.6747      	1113.7454      	1113.7089      	1113.6307      	1113.7224      	1113.68        	1113.5657      	1113.7571      	1113.667       	1113.6648      	1113.7234      	1113.6512      	1113.648       	1113.6155      	1113.849       	1113.6437      	1113.586       	1113.6188      	1113.64        	1113.627       	1113.7484      	1113.9575      	1114.0604      	1113.7789      	1113.6561      	1113.6406      	1113.6473      	1113.6975      	1113.6688      	1113.6854      	1113.7372      	1113.7412      	1113.7192      	1113.754       	1113.7256      	1113.7666      	1113.7411      	1113.7367      	1113.7814      	1113.787       	1113.8048      	1113.7943      	1113.8079      	1113.6141      	1113.8141      	1113.7443      	1113.7566      	1113.731       	1113.783       	1113.6478      	1113.6293      	1113.7428      	
1113.6626      	1113.6339      	1113.6946      	1113.797       	1113.8058      	1113.8496      	1113.9032      	1113.9943      	1113.7253      	1113.6896      	1113.6409      	1113.6471      	1113.7128      	1113.6699      	1113.6648      	1113.71        	1113.6456      	1113.6268      	1113.645       	1113.6967      	1113.6182      	1113.664       	1113.645       	1113.6343      	1113.6731      	1113.659       	1113.6669      	1113.6483      	1113.6965      	1113.6816      	1113.2239      	1113.4089      	1113.5347      	1113.5256      	1113.5867      	1113.751       	1113.6749      	1113.7151      	1113.7001      	1113.7085      	1113.6959      	1113.711       	1113.7378      	1113.661       	1113.7332      	1113.7397      	1113.7494      	1113.7872      	1113.7069      	1113.7805      	1113.7374      	1113.6914      	1113.7329      	1113.8055      	1113.7786      	1113.7175      	1113.7888      	1113.7458      	1113.7373      	1113.8323      	1113.68        	1113.5934      	1113.6415      	1113.6965      	1113.7247      	1113.867       	1113.6877      	1113.6492      	1113.7202      	1113.841       	1113.9907      	1114.0178      	1113.7076      	1113.7317      	1113.6573      	1113.6958      	1113.719       	1113.6619      	1113.7004      	1113.7009      	1113.703       	1113.79        	1113.7606      	1113.7996      	1113.8093      	1113.8142      	1113.7991      	1113.7653      	1113.9622      	1113.6367      	1113.6415      	1113.6791      	1113.7495      	1113.8312      	1113.7025      	1113.6909      	1113.6874      	1113.5607      	1113.5747      	1113.6877      	
1114.0347      	1114.0562      	1114.0452      	1114.0305      	1114.1171      	1114.1628      	1114.4122      	1114.3507      	1114.086       	1114.1002      	1114.0199      	1114.0192      	1114.0673      	1114.0605      	1114.0498      	1114.0072      	1114.0437      	1114.0454      	1113.994       	1114.064       	1114.0874      	1114.0128      	1114.1044      	1114.0342      	1113.9917      	1114.0273      	1114.0643      	1113.9264      	1114.0684      	1114.1223      	1113.6274      	1113.7682      	1113.857       	1113.7871      	1113.9487      	1114.0833      	1114.0145      	1114.1356      	1114.061       	1114.0435      	1114.1094      	1114.1139      	1114.0774      	1114.0201      	1114.0907      	1114.0613      	1114.1105      	1114.0658      	1114.024       	1114.0934      	1114.088       	1114.1163      	1114.103       	1114.1013      	1114.0876      	1114.0789      	1114.0109      	1114.118       	1114.116       	1114.0519      	1114.1312      	1114.0275      	1114.0756      	1114.0726      	1114.1123      	1114.1007      	1113.855       	1113.9503      	1114.1622      	1114.1509      	1114.2437      	1114.1156      	1114.001       	1114.0173      	1114.0261      	1114.0249      	1114.0546      	1114.0217      	1114.038       	1114.0095      	1113.9946      	1114.038       	1114.0166      	1114.0133      	1114.0415      	1114.0076      	1114.0178      	1113.9902      	1114.0123      	1114.0409      	1113.9441      	1113.9674      	1113.9855      	1113.9214      	1113.9299      	1113.9043      	1113.9471      	1113.8241      	1113.8235      	1113.8286      	
1114.0841      	1114.0752      	1114.1536      	1114.1168      	1114.1572      	1114.1683      	1114.3014      	1114.5253      	1114.1754      	1114.0797      	1114.0732      	1114.1368      	1114.063       	1114.1019      	1114.0673      	1114.0668      	1114.0831      	1114.0933      	1114.1031      	1114.1261      	1114.0526      	1114.0874      	1114.0796      	1114.1239      	1114.0657      	1114.1156      	1114.1091      	1114.091       	1114.0576      	1114.1932      	1114.0483      	1113.6785      	1113.9763      	1114.0175      	1114.009       	1114.1913      	1114.1958      	1114.1112      	1114.1305      	1114.2516      	1114.1427      	1114.1691      	1114.1831      	1114.1545      	1114.2198      	1114.1841      	1114.2081      	1114.1926      	1114.25        	1114.1727      	1114.2439      	1114.1716      	1114.075       	1114.2542      	1114.2971      	1114.147       	1114.3097      	1114.1401      	1114.3088      	1114.2799      	1114.1746      	1114.2521      	1114.1587      	1114.2028      	1114.2589      	1114.2102      	1114.2059      	1114.2833      	1114.1343      	1114.3429      	1114.2386      	1114.158       	1114.1613      	1114.1542      	1114.2247      	1114.2089      	1114.2365      	1114.1511      	1114.2295      	1114.2517      	1114.2698      	1114.2216      	1114.2673      	1114.2878      	1114.2651      	1114.2697      	1114.2715      	1114.3036      	1114.2802      	1114.2921      	1114.2668      	1114.306       	1114.2112      	1114.2368      	1114.2764      	1114.2273      	1114.2599      	1114.1427      	1114.089       	1114.1978      	
1113.908       	1113.9021      	1113.9382      	1113.7921      	1113.9999      	1113.9666      	1114.0875      	1114.1694      	1114.0559      	1113.8821      	1113.9392      	1113.9229      	1113.9056      	1113.8926      	1113.9321      	1113.884       	1113.9688      	1113.8884      	1113.8845      	1113.8992      	1113.8534      	1113.89        	1113.8829      	1113.9194      	1113.8687      	1113.9156      	1113.8717      	1113.9208      	1113.9136      	1113.9622      	1113.9064      	1113.564       	1113.7151      	1113.7064      	1113.8143      	1113.9985      	1113.9933      	1114.0558      	1114.0078      	1114.0049      	1114.0374      	1114.0559      	1114.0737      	1114.0883      	1114.037       	1114.0432      	1114.1385      	1114.2153      	1113.997       	1114.1184      	1114.1549      	1113.9929      	1114.115       	1113.9519      	1114.11        	1114.0038      	1114.202       	1113.9689      	1114.1208      	1114.0566      	1114.0631      	1114.2476      	1113.92        	1114.1577      	1114.2596      	1114.0767      	1114.0593      	1114.0691      	1114.119       	1114.0671      	1114.0925      	1114.1294      	1114.0619      	1114.1549      	1114.1039      	1114.1116      	1114.1594      	1114.0868      	1114.173       	1114.155       	1114.1346      	1114.1947      	1114.1532      	1114.1542      	1114.1587      	1114.1345      	1114.1166      	1114.1271      	1114.1925      	1114.0828      	1114.1775      	1114.1252      	1114.0933      	1114.1237      	1114.1245      	1114.0829      	1114.0685      	1113.9761      	1114.0913      	1114.1571      	
1113.7628      	1113.8027      	1113.7903      	1113.7736      	1113.8495      	1113.9124      	1113.8812      	1114.2094      	1114.0272      	1113.789       	1113.8075      	1113.7427      	1113.8147      	1113.703       	1113.8049      	1113.7732      	1113.7765      	1113.741       	1113.7792      	1113.7372      	1113.7694      	1113.7726      	1113.7333      	1113.7709      	1113.7472      	1113.8097      	1113.8395      	1113.6986      	1113.795       	1113.7863      	1113.9634      	1113.2722      	1113.5635      	1113.6769      	1113.7158      	1113.768       	1113.9044      	1113.8247      	1113.8685      	1113.8787      	1113.9159      	1113.8247      	1113.9712      	1113.8383      	1113.9744      	1113.9384      	1113.8835      	1113.7506      	1114.0217      	1113.9235      	1113.8708      	1113.9995      	1113.8743      	1113.8159      	1113.8589      	1113.8727      	1113.8835      	1113.9081      	1113.9806      	1113.8407      	1113.9579      	1113.8416      	1113.9003      	1113.875       	1113.885       	1113.8644      	1113.8552      	1113.8606      	1113.8745      	1113.8671      	1113.9224      	1113.8784      	1113.8822      	1113.881       	1113.9044      	1113.8829      	1113.9227      	1113.8899      	1113.9668      	1113.9261      	1113.955       	1114.0092      	1113.934       	1113.944       	1113.9264      	1114.0021      	1113.8876      	1113.9283      	1113.9471      	1113.9321      	1113.9204      	1113.9095      	1113.9437      	1113.89        	1113.9598      	1113.8804      	1113.9425      	1113.8438      	1113.6682      	1113.7         	
1113.7872      	1113.8176      	1113.824       	1113.8342      	1113.9656      	1113.7949      	1113.9199      	1114.1782      	1114.1237      	1113.856       	1113.8103      	1113.8403      	1113.8036      	1113.7476      	1113.8358      	1113.8134      	1113.76        	1113.7814      	1113.7223      	1113.8242      	1113.7605      	1113.7924      	1113.7745      	1113.7704      	1113.8132      	1113.7645      	1113.7708      	1113.8108      	1113.8083      	1113.8342      	1113.9768      	1113.2886      	1113.5443      	1113.7273      	1113.6359      	1113.7222      	1113.9044      	1113.8862      	1113.9539      	1113.9442      	1113.9458      	1113.9684      	1113.9042      	1113.8323      	1114.0173      	1114.0267      	1113.9728      	1113.821       	1113.9825      	1113.9999      	1114.1945      	1113.9529      	1113.9357      	1113.971       	1114.0043      	1113.9847      	1114.0013      	1113.9536      	1113.9093      	1113.9506      	1113.9243      	1113.9199      	1113.8834      	1113.9252      	1113.923       	1113.9114      	1113.9519      	1113.9211      	1113.939       	1113.9341      	1113.9364      	1113.9479      	1113.9275      	1113.9607      	1113.968       	1113.8948      	1113.9481      	1114.008       	1113.9509      	1113.9672      	1113.9719      	1113.9944      	1113.9932      	1113.9569      	1113.9692      	1113.9954      	1113.989       	1113.9636      	1113.9482      	1113.9861      	1113.9581      	1113.9451      	1113.9688      	1113.9347      	1113.9462      	1113.9227      	1113.9174      	1113.8918      	1113.8568      	1113.7974      	
1113.7721      	1113.7542      	1113.8049      	1113.7107      	1113.828       	1113.8501      	1113.9402      	1114.1163      	1114.1057      	1113.8286      	1113.7651      	1113.8367      	1113.6896      	1113.8207      	1113.8088      	1113.7638      	1113.801       	1113.7648      	1113.7926      	1113.8225      	1113.8125      	1113.826       	1113.7516      	1113.8065      	1113.7849      	1113.7634      	1113.7722      	1113.7972      	1113.7743      	1113.7922      	1113.8413      	1113.866       	1113.4207      	1113.6532      	1113.7458      	1113.8002      	1113.8772      	1113.7424      	1113.788       	1113.8635      	1113.9319      	1113.8098      	1114.0809      	1113.7095      	1113.9366      	1113.9425      	1113.9286      	1113.8928      	1113.9231      	1113.7466      	1114.0918      	1114.0552      	1113.8885      	1113.8313      	1113.8513      	1113.9181      	1113.8574      	1113.8679      	1113.8628      	1113.8695      	1113.8718      	1113.8744      	1113.8478      	1113.8593      	1113.8351      	1113.8312      	1113.8356      	1113.8285      	1113.9009      	1113.8273      	1113.8785      	1113.8693      	1113.8972      	1113.9019      	1113.8611      	1113.871       	1113.8954      	1113.9423      	1113.8944      	1113.9176      	1113.9093      	1113.9425      	1113.9344      	1113.906       	1113.9545      	1114.0034      	1113.938       	1113.942       	1113.809       	1113.9507      	1113.8457      	1113.9023      	1113.9309      	1113.7527      	1113.9657      	1113.8104      	1113.7772      	1113.783       	1113.6079      	1113.675       	
1113.8197      	1113.8344      	1113.8167      	1113.8878      	1113.7366      	1113.875       	1113.9252      	1113.9247      	1114.1884      	1113.842       	1113.7218      	1113.8917      	1113.8226      	1113.7977      	1113.8235      	1113.8279      	1113.7413      	1113.7832      	1113.877       	1113.7882      	1113.8608      	1113.8118      	1113.8527      	1113.826       	1113.787       	1113.7869      	1113.7964      	1113.8185      	1113.8159      	1113.8655      	1113.8175      	1113.779       	1113.4384      	1113.7091      	1113.814       	1113.6309      	1113.9539      	1113.743       	1113.7739      	1113.8817      	1113.8971      	1113.9845      	1113.8645      	1113.643       	1113.9904      	1113.8663      	1113.8628      	1114.0159      	1113.8927      	1113.8474      	1113.8524      	1113.8739      	1113.8188      	1113.8033      	1113.8894      	1113.8474      	1113.8357      	1113.8287      	1113.8315      	1113.8292      	1113.8514      	1113.854       	1113.8345      	1113.828       	1113.803       	1113.8413      	1113.838       	1113.8171      	1113.7893      	1113.8962      	1113.9395      	1113.6694      	1113.8282      	1113.9169      	1113.8755      	1113.9175      	1113.8804      	1113.9075      	1113.7958      	1113.8518      	1113.8469      	1113.8287      	1113.8267      	1113.8466      	1113.7863      	1113.7759      	1113.7977      	1113.8561      	1113.6798      	1113.833       	1113.8137      	1113.8003      	1113.7506      	1113.8         	1113.8434      	1113.7454      	1113.7538      	1113.7122      	1113.6646      	1113.7035      	
1113.7341      	1113.7523      	1113.6613      	1113.7755      	1113.714       	1113.6593      	1113.7937      	1113.8618      	1114.0741      	1113.995       	1113.6565      	1113.7194      	1113.7374      	1113.707       	1113.7927      	1113.7316      	1113.7002      	1113.7322      	1113.7675      	1113.6954      	1113.7478      	1113.7511      	1113.6965      	1113.8019      	1113.6477      	1113.6731      	1113.6978      	1113.7207      	1113.7368      	1113.7579      	1113.8245      	1113.8774      	1113.5688      	1113.7578      	1113.586       	1113.6045      	1113.8007      	1113.8656      	1113.8302      	1113.7275      	1114.0334      	1113.7881      	1114.0582      	1113.77        	1114.0457      	1113.7986      	1113.7825      	1113.8386      	1113.8364      	1113.8278      	1113.791       	1113.8093      	1113.7992      	1113.7764      	1113.8105      	1113.7739      	1113.7888      	1113.8407      	1113.8446      	1113.8524      	1113.8267      	1113.7986      	1113.8083      	1113.7937      	1113.8303      	1113.827       	1113.7747      	1113.7942      	1113.8252      	1113.8915      	1113.8895      	1113.7076      	1113.8146      	1114.0304      	1113.8801      	1113.8917      	1113.8668      	1113.9167      	1113.8923      	1113.9442      	1113.8551      	1113.8987      	1113.8945      	1113.8895      	1113.8489      	1113.8376      	1113.8738      	1113.8181      	1113.8204      	1113.8306      	1113.8029      	1113.7799      	1113.7953      	1113.8021      	1113.8254      	1113.7566      	1113.7181      	1113.7356      	1113.7085      	1113.7059      	
1113.6956      	1113.7416      	1113.6824      	1113.7561      	1113.8069      	1113.7273      	1113.6638      	1113.8245      	1114.0232      	1114.0941      	1113.6581      	1113.6918      	1113.703       	1113.6761      	1113.718       	1113.659       	1113.7302      	1113.6786      	1113.685       	1113.6849      	1113.7229      	1113.7114      	1113.6786      	1113.6984      	1113.7247      	1113.6625      	1113.6915      	1113.7699      	1113.649       	1113.7003      	1113.7325      	1113.6632      	1113.744       	1113.6774      	1113.4979      	1113.5692      	1113.7915      	1113.7522      	1113.7883      	1113.7354      	1113.7411      	1113.7611      	1113.8069      	1113.7103      	1113.7031      	1113.7765      	1113.7104      	1113.754       	1113.7526      	1113.7657      	1113.7509      	1113.7064      	1113.7257      	1113.7145      	1113.7249      	1113.77        	1113.7579      	1113.742       	1113.7382      	1113.7701      	1113.8091      	1113.759       	1113.8114      	1113.7267      	1113.753       	1113.7567      	1113.745       	1113.8107      	1113.7775      	1113.773       	1113.8176      	1113.8098      	1113.7717      	1113.8527      	1113.8298      	1113.8009      	1113.8525      	1113.8447      	1113.8923      	1113.8634      	1113.8138      	1113.8303      	1113.8076      	1113.8218      	1113.7943      	1113.8221      	1113.7623      	1113.7963      	1113.8118      	1113.7072      	1113.853       	1113.7612      	1113.6698      	1113.6763      	1113.8678      	1113.5848      	1113.6179      	1113.8083      	1113.7499      	1113.7083      	
1113.7212      	1113.7506      	1113.6819      	1113.7385      	1113.7579      	1113.655       	1113.8904      	1113.8367      	1113.911       	1114.0481      	1113.8591      	1113.7319      	1113.6823      	1113.7009      	1113.6575      	1113.7583      	1113.6432      	1113.6998      	1113.6904      	1113.6909      	1113.7323      	1113.718       	1113.6799      	1113.7157      	1113.622       	1113.67        	1113.6583      	1113.6866      	1113.687       	1113.7355      	1113.672       	1113.7258      	1113.6786      	1113.6971      	1113.7019      	1113.714       	1113.6643      	1113.6459      	1113.7032      	1113.7201      	1113.6887      	1113.6798      	1113.7625      	1113.7194      	1113.7144      	1113.6873      	1113.7299      	1113.7349      	1113.6967      	1113.7098      	1113.7185      	1113.6991      	1113.7228      	1113.7003      	1113.7189      	1113.6844      	1113.7726      	1113.7463      	1113.6526      	1113.6755      	1113.6876      	1113.7         	1113.743       	1113.6837      	1113.7166      	1113.6953      	1113.7687      	1113.7166      	1113.7428      	1113.7151      	1113.7642      	1113.781       	1113.7947      	1113.7375      	1113.6733      	1113.7522      	1113.7452      	1113.737       	1113.8049      	1113.7499      	1113.7511      	1113.7538      	1113.6802      	1113.6868      	1113.807       	1113.6353      	1113.6472      	1113.6648      	1113.646       	1113.605       	1113.5914      	1113.6257      	1113.6399      	1113.56        	1113.6522      	1113.5533      	1113.6112      	1113.5132      	1113.507       	1113.5671      	
1113.8728      	1113.9166      	1113.9169      	1113.8798      	1113.948       	1113.8678      	1113.8986      	1113.9612      	1114.0044      	1114.3629      	1114.122       	1113.8901      	1113.8865      	1113.8878      	1113.9037      	1113.8469      	1113.922       	1113.8768      	1113.8684      	1113.8708      	1113.8385      	1113.8707      	1113.8596      	1113.869       	1113.833       	1113.8625      	1113.7916      	1113.8351      	1113.8496      	1113.8959      	1113.8534      	1113.8765      	1113.8682      	1113.892       	1113.8674      	1113.8131      	1113.845       	1113.8674      	1113.9246      	1113.8486      	1113.8568      	1113.9019      	1113.925       	1113.8531      	1113.8829      	1113.884       	1113.922       	1113.9067      	1113.8313      	1113.8292      	1113.8859      	1113.8489      	1113.9011      	1113.8845      	1113.8561      	1113.8708      	1113.858       	1113.8824      	1113.8378      	1113.8579      	1113.843       	1113.8218      	1113.8708      	1113.8413      	1113.8751      	1113.863       	1113.8456      	1113.8876      	1113.8773      	1113.9153      	1113.9141      	1113.9373      	1113.8842      	1113.9191      	1113.9233      	1113.9146      	1113.9191      	1113.9442      	1113.9081      	1113.9308      	1113.8451      	1113.8657      	1113.8927      	1113.8458      	1113.902       	1113.821       	1113.8882      	1113.8667      	1113.8087      	1113.7855      	1113.7933      	1113.7935      	1113.7661      	1113.7812      	1113.8002      	1113.8845      	1113.7687      	1113.669       	1113.6923      	1113.5927      	
1114.0117      	1114.0494      	1114.0698      	1114.0862      	1114.074       	1114.0618      	1114.034       	1114.1122      	1114.1044      	1114.4286      	1114.283       	1114.1102      	1113.9236      	1113.9951      	1114.0054      	1113.9965      	1114.0203      	1114.0195      	1113.9559      	1113.9812      	1113.9624      	1113.9698      	1113.9872      	1113.9757      	1113.982       	1113.9728      	1114.0106      	1114.0548      	1113.9686      	1113.9851      	1114.0099      	1113.9802      	1114.0154      	1114.0005      	1113.9979      	1114.0366      	1113.9753      	1113.9983      	1114.0468      	1113.9917      	1114.0183      	1113.989       	1114.0337      	1114.0002      	1114.0061      	1114.0051      	1114.0002      	1114.0311      	1114.0096      	1114.0072      	1114.0002      	1113.9963      	1113.9688      	1114.031       	1114.0083      	1113.998       	1113.975       	1113.9753      	1114.0037      	1113.9681      	1114.0206      	1113.9769      	1114.0345      	1114.0426      	1114.0258      	1114.0126      	1114.0786      	1114.004       	1114.0466      	1114.0747      	1114.0237      	1114.0896      	1114.0935      	1114.082       	1114.117       	1114.0546      	1114.08        	1114.0427      	1114.0906      	1114.0255      	1114.0143      	1114.0203      	1114.0558      	1114.0349      	1113.9597      	1114.0325      	1113.9574      	1114.0327      	1113.9828      	1113.9487      	1114.0085      	1113.9148      	1113.9935      	1113.9491      	1114.0032      	1113.9054      	1113.9427      	1113.9631      	1113.9159      	1113.9009      	
1114.1382      	1114.1707      	1114.1486      	1114.1935      	1114.12        	1114.1984      	1114.1484      	1114.132       	1114.2827      	1114.3187      	1114.3093      	1114.0851      	1114.0177      	1114.0608      	1114.034       	1114.0461      	1114.0237      	1114.0743      	1114.022       	1114.0724      	1114.0095      	1114.0712      	1114.0613      	1114.0139      	1114.0304      	1114.0157      	1114.0111      	1113.9811      	1114.0417      	1114.0762      	1114.0521      	1114.0212      	1114.0826      	1114.0544      	1114.0952      	1114.0897      	1114.0428      	1114.0773      	1114.1508      	1114.1254      	1114.127       	1114.0985      	1114.0903      	1114.0555      	1114.0458      	1114.0919      	1114.0312      	1114.0569      	1114.126       	1114.0372      	1114.0708      	1114.0469      	1114.0627      	1114.102       	1114.0188      	1114.0907      	1114.0664      	1114.0209      	1114.0294      	1114.0826      	1114.1116      	1114.1013      	1114.1261      	1114.1501      	1114.0873      	1114.1213      	1114.1044      	1114.114       	1114.0851      	1114.1062      	1114.0446      	1114.1232      	1114.1031      	1114.1311      	1114.079       	1114.0973      	1114.1239      	1114.0796      	1114.0541      	1114.115       	1114.0157      	1114.039       	1114.065       	1114.0709      	1114.0768      	1114.0331      	1114.0706      	1114.0188      	1114.0424      	1113.9833      	1114.0409      	1114.0134      	1113.9432      	1114.0037      	1113.9626      	1113.9712      	1113.9728      	1113.9187      	1113.94        	1114.0403      	
1114.2081      	1114.1919      	1114.2032      	1114.0911      	1114.2605      	1114.1561      	1114.2162      	1114.2289      	1114.1833      	1114.3658      	1114.5051      	1114.212       	1114.1626      	1114.1522      	1114.1189      	1114.1299      	1114.1278      	1114.0587      	1114.0743      	1114.0931      	1114.0803      	1114.111       	1114.0261      	1114.0927      	1114.0542      	1114.0824      	1114.0867      	1114.0988      	1114.0956      	1114.1298      	1114.0872      	1114.1438      	1114.0988      	1114.1589      	1114.1353      	1114.1295      	1114.1459      	1114.1769      	1114.2009      	1114.202       	1114.1716      	1114.1803      	1114.1335      	1114.1613      	1114.1597      	1114.1503      	1114.1367      	1114.1392      	1114.135       	1114.1691      	1114.1952      	1114.1545      	1114.1167      	1114.0977      	1114.1284      	1114.0973      	1114.1095      	1114.1501      	1114.132       	1114.162       	1114.1243      	1114.1785      	1114.1276      	1114.12        	1114.1606      	1114.176       	1114.2069      	1114.101       	1114.1608      	1114.1447      	1114.2263      	1114.2118      	1114.1382      	1114.1903      	1114.1711      	1114.1643      	1114.1654      	1114.1311      	1114.1681      	1114.0813      	1114.1477      	1114.1714      	1114.0712      	1114.1505      	1114.08        	1114.2463      	1114.1086      	1114.1421      	1114.1173      	1114.1475      	1114.1415      	1114.175       	1114.1         	1114.0957      	1114.0992      	1114.1079      	1114.0244      	1114.1028      	1114.046       	1114.0596      	
1114.1692      	1114.3123      	1114.1345      	1114.0813      	1114.3241      	1114.141       	1114.2372      	1114.2086      	1114.2163      	1114.4045      	1114.4617      	1114.1704      	1114.191       	1114.0842      	1114.159       	1114.129       	1114.1273      	1114.1835      	1114.0837      	1114.1108      	1114.0958      	1114.0983      	1114.0787      	1114.1023      	1114.0724      	1114.1826      	1114.1251      	1114.1323      	1114.1389      	1114.0743      	1114.1255      	1114.1592      	1114.1404      	1114.1306      	1114.1211      	1114.1023      	1114.1178      	1114.0951      	1114.186       	1114.1654      	1114.1299      	1114.1954      	1114.1105      	1114.1409      	1114.1368      	1114.1417      	1114.1271      	1114.1237      	1114.1487      	1114.1348      	1114.1154      	1114.1711      	1114.132       	1114.1737      	1114.1256      	1114.1504      	1114.1475      	1114.1521      	1114.105       	1114.1569      	1114.1532      	1114.1245      	1114.1309      	1114.1669      	1114.1721      	1114.1477      	1114.1765      	1114.1661      	1114.1733      	1114.2144      	1114.2026      	1114.1443      	1114.1565      	1114.1577      	1114.1086      	1114.1108      	1114.1287      	1114.1213      	1114.129       	1114.1135      	1114.1251      	1114.1356      	1114.1223      	1114.1497      	1114.0571      	1114.0626      	1114.0714      	1114.1239      	1114.1029      	1114.051       	1114.1074      	1114.0636      	1114.0803      	1114.1284      	1114.0562      	1114.1106      	1114.0626      	1114.0701      	1114.0615      	1114.0493      	
1114.0166      	1113.913       	1114.0138      	1113.952       	1113.9003      	1114.1459      	1113.8716      	1114.0693      	1114.0757      	1114.1033      	1114.0726      	1113.9641      	1113.9781      	1113.9713      	1113.9889      	1113.953       	1113.993       	1113.9585      	1113.9679      	1113.9304      	1113.9364      	1113.9878      	1113.9464      	1113.9253      	1113.9656      	1113.9587      	1113.932       	1113.9418      	1113.912       	1113.9509      	1113.9343      	1113.9525      	1113.9578      	1113.9728      	1113.9431      	1113.9305      	1114.0093      	1113.9172      	1113.9843      	1113.9504      	1113.9363      	1113.9857      	1113.9763      	1113.9685      	1113.9178      	1113.9764      	1114.0139      	1114.0181      	1113.9856      	1113.9608      	1113.9524      	1113.9573      	1113.9917      	1113.9856      	1114           	1114.0054      	1113.9956      	1114.0021      	1114.016       	1114.0411      	1114.0284      	1114.0233      	1114.0477      	1114.0076      	1114.0247      	1114.0428      	1114.0657      	1114.0255      	1114.0641      	1114.0475      	1114.0679      	1114.0272      	1114.051       	1114.0837      	1114.0326      	1114.022       	1114.047       	1114.0364      	1113.9945      	1114.0457      	1114.0101      	1114.0527      	1113.9635      	1113.991       	1113.9698      	1113.9862      	1113.9655      	1114.0029      	1113.936       	1113.9716      	1113.9408      	1113.9553      	1113.9657      	1113.989       	1113.9807      	1113.9713      	1113.981       	1113.9756      	1113.9338      	1113.8885      	
1113.9358      	1113.7638      	1113.9681      	1113.9204      	1113.8372      	1113.9636      	1114.0173      	1113.8843      	1113.9042      	1113.8966      	1113.8689      	1113.8536      	1113.8436      	1113.8529      	1113.8591      	1113.807       	1113.885       	1113.8403      	1113.8231      	1113.8317      	1113.8412      	1113.8173      	1113.8245      	1113.8351      	1113.8462      	1113.8293      	1113.8302      	1113.8749      	1113.883       	1113.8458      	1113.897       	1113.8284      	1113.8416      	1113.9149      	1113.8134      	1113.8876      	1113.8635      	1113.8857      	1113.8121      	1113.8732      	1113.826       	1113.8036      	1113.8134      	1113.8644      	1113.8616      	1113.844       	1113.863       	1113.8346      	1113.8481      	1113.8171      	1113.8212      	1113.8292      	1113.8319      	1113.8038      	1113.8658      	1113.8876      	1113.887       	1113.8538      	1113.8546      	1113.8374      	1113.8599      	1113.8395      	1113.8752      	1113.8771      	1113.9132      	1113.8553      	1113.877       	1113.8699      	1113.94        	1113.8616      	1113.8694      	1113.8655      	1113.8761      	1113.8553      	1113.826       	1113.8772      	1113.8118      	1113.8616      	1113.827       	1113.8179      	1113.818       	1113.7661      	1113.8534      	1113.759       	1113.8108      	1113.8494      	1113.7982      	1113.8077      	1113.7385      	1113.778       	1113.7976      	1113.7134      	1113.7833      	1113.7632      	1113.7876      	1113.7683      	1113.7446      	1113.7773      	1113.7574      	1113.7233      	
1114.1317      	1114.2094      	1114.2201      	1114.1375      	1114.1174      	1114.1903      	1114.1528      	1114.2194      	1114.2184      	1114.1532      	1114.1708      	1114.121       	1114.189       	1114.1714      	1114.1365      	1114.1146      	1114.1766      	1114.1084      	1114.128       	1114.1068      	1114.0707      	1114.0802      	1114.0659      	1114.0991      	1114.1134      	1114.0745      	1114.0425      	1114.0759      	1114.0895      	1114.1191      	1114.0945      	1114.0985      	1114.0895      	1114.1095      	1114.1158      	1114.1586      	1114.0632      	1114.1199      	1114.0769      	1114.1163      	1114.119       	1114.1216      	1114.0356      	1114.1168      	1114.16        	1114.0891      	1114.0803      	1114.0491      	1114.0525      	1114.0684      	1114.048       	1114.0961      	1114.0759      	1114.082       	1114.0983      	1114.0354      	1114.0411      	1114.0835      	1114.0762      	1114.077       	1114.0421      	1114.0421      	1114.0399      	1114.0485      	1114.0331      	1114.0765      	1114.0735      	1114.0786      	1114.0435      	1114.0104      	1114.0671      	1114.0317      	1114.0542      	1114.0249      	1114.0659      	1113.9836      	1114.0007      	1114.0074      	1114.0156      	1113.979       	1113.998       	1113.9352      	1113.948       	1113.931       	1113.9656      	1113.9587      	1113.9585      	1113.9402      	1113.9484      	1113.9308      	1113.8726      	1114.0024      	1113.9489      	1113.9392      	1113.9562      	1113.9861      	1113.9286      	1113.8927      	1113.8983      	1113.9259      	
1114.2723      	1114.2579      	1114.3004      	1114.3394      	1114.3092      	1114.3112      	1114.2976      	1114.3253      	1114.2632      	1114.2941      	1114.2836      	1114.3025      	1114.2788      	1114.2407      	1114.3009      	1114.3096      	1114.2919      	1114.2823      	1114.3043      	1114.2709      	1114.3035      	1114.225       	1114.2258      	1114.2784      	1114.2362      	1114.2704      	1114.2909      	1114.3003      	1114.2935      	1114.3         	1114.2815      	1114.3141      	1114.2692      	1114.3048      	1114.2976      	1114.2737      	1114.3342      	1114.2798      	1114.2433      	1114.2355      	1114.1722      	1114.2234      	1114.2275      	1114.2595      	1114.2437      	1114.2052      	1114.2101      	1114.2126      	1114.2255      	1114.2264      	1114.1384      	1114.227       	1114.2166      	1114.1958      	1114.2123      	1114.1421      	1114.1818      	1114.2163      	1114.208       	1114.2202      	1114.185       	1114.2069      	1114.2161      	1114.214       	1114.2284      	1114.2078      	1114.2277      	1114.2826      	1114.2417      	1114.244       	1114.2743      	1114.2129      	1114.2136      	1114.1749      	1114.196       	1114.1627      	1114.1436      	1114.159       	1114.1626      	1114.1794      	1114.1675      	1114.1482      	1114.1565      	1114.1663      	1114.1531      	1114.1581      	1114.1704      	1114.1875      	1114.1033      	1114.1093      	1114.0696      	1114.0913      	1114.0874      	1114.0779      	1114.0499      	1114.0516      	1114.082       	1114.0742      	1114.0654      	1114.0656      	
1114.5171      	1114.5426      	1114.5266      	1114.5276      	1114.5667      	1114.5083      	1114.4844      	1114.4956      	1114.4529      	1114.5123      	1114.5471      	1114.5417      	1114.526       	1114.4462      	1114.4854      	1114.4939      	1114.4127      	1114.4749      	1114.4438      	1114.452       	1114.3931      	1114.4348      	1114.4612      	1114.4319      	1114.4598      	1114.494       	1114.4285      	1114.3848      	1114.4689      	1114.4972      	1114.4966      	1114.5067      	1114.4786      	1114.4845      	1114.5338      	1114.4989      	1114.4669      	1114.5164      	1114.4299      	1114.5048      	1114.4702      	1114.4305      	1114.4811      	1114.5048      	1114.379       	1114.409       	1114.4263      	1114.4241      	1114.4146      	1114.4589      	1114.4413      	1114.4712      	1114.4276      	1114.4647      	1114.4282      	1114.5017      	1114.4882      	1114.4099      	1114.4528      	1114.4436      	1114.4304      	1114.4446      	1114.4128      	1114.4103      	1114.4454      	1114.4565      	1114.4592      	1114.5304      	1114.424       	1114.4843      	1114.4692      	1114.42        	1114.4628      	1114.418       	1114.421       	1114.38        	1114.471       	1114.3733      	1114.4066      	1114.3767      	1114.3722      	1114.413       	1114.3588      	1114.349       	1114.382       	1114.4012      	1114.3885      	1114.3806      	1114.3718      	1114.3726      	1114.398       	1114.4028      	1114.3752      	1114.4208      	1114.3915      	1114.3816      	1114.3673      	1114.356       	1114.3939      	1114.3318      	
1114.5739      	1114.5792      	1114.5927      	1114.5361      	1114.5641      	1114.4799      	1114.5392      	1114.547       	1114.4989      	1114.5785      	1114.559       	1114.5398      	1114.5608      	1114.5325      	1114.3954      	1114.4998      	1114.4718      	1114.5132      	1114.4929      	1114.4576      	1114.5134      	1114.4789      	1114.5065      	1114.4249      	1114.5715      	1114.5339      	1114.3693      	1114.4877      	1114.5867      	1114.4991      	1114.4949      	1114.5387      	1114.5266      	1114.5596      	1114.5258      	1114.5419      	1114.5657      	1114.5239      	1114.4734      	1114.4705      	1114.5409      	1114.5027      	1114.4954      	1114.4503      	1114.3815      	1114.5302      	1114.5157      	1114.508       	1114.4348      	1114.5317      	1114.4467      	1114.4669      	1114.4928      	1114.4993      	1114.5239      	1114.4999      	1114.5038      	1114.5352      	1114.511       	1114.53        	1114.5458      	1114.5126      	1114.5492      	1114.5222      	1114.47        	1114.507       	1114.5251      	1114.5206      	1114.4967      	1114.513       	1114.4869      	1114.4814      	1114.4861      	1114.5128      	1114.493       	1114.4757      	1114.4878      	1114.4758      	1114.4178      	1114.4243      	1114.4219      	1114.4741      	1114.4054      	1114.4784      	1114.5458      	1114.4509      	1114.5028      	1114.4181      	1114.4427      	1114.451       	1114.4824      	1114.4347      	1114.51        	1114.4734      	1114.4447      	1114.5037      	1114.523       	1114.573       	1114.2207      	1114.0332      	
1114.593       	1114.5559      	1114.5603      	1114.6025      	1114.4818      	1114.5535      	1114.5458      	1114.542       	1114.5408      	1114.588       	1114.5739      	1114.5415      	1114.5458      	1114.5499      	1114.537       	1114.5608      	1114.583       	1114.5325      	1114.5673      	1114.5112      	1114.5538      	1114.5796      	1114.5214      	1114.5562      	1114.5708      	1114.554       	1114.5732      	1114.529       	1114.5366      	1114.5605      	1114.5623      	1114.5767      	1114.5616      	1114.5638      	1114.5936      	1114.5383      	1114.5933      	1114.5782      	1114.5215      	1114.4998      	1114.6382      	1114.4417      	1114.6274      	1114.4052      	1114.5037      	1114.6558      	1114.5583      	1114.5872      	1114.5624      	1114.5254      	1114.5447      	1114.5922      	1114.5336      	1114.5181      	1114.5426      	1114.5427      	1114.5443      	1114.583       	1114.6205      	1114.6227      	1114.6241      	1114.6176      	1114.6431      	1114.6145      	1114.64        	1114.6206      	1114.6707      	1114.565       	1114.6062      	1114.6257      	1114.611       	1114.5858      	1114.5807      	1114.6317      	1114.5695      	1114.6025      	1114.6282      	1114.5844      	1114.5471      	1114.5878      	1114.5353      	1114.5458      	1114.521       	1114.5029      	1114.5232      	1114.528       	1114.5347      	1114.531       	1114.5258      	1114.5159      	1114.5125      	1114.5374      	1114.5382      	1114.5756      	1114.5392      	1114.5421      	1114.6158      	1114.4113      	1113.9904      	1113.841       	
1114.523       	1114.5396      	1114.5216      	1114.5325      	1114.5095      	1114.5323      	1114.4745      	1114.5176      	1114.5062      	1114.5111      	1114.5288      	1114.486       	1114.514       	1114.5144      	1114.5034      	1114.4923      	1114.4408      	1114.4827      	1114.458       	1114.4705      	1114.4788      	1114.4719      	1114.4731      	1114.4745      	1114.5148      	1114.4912      	1114.5063      	1114.474       	1114.498       	1114.492       	1114.493       	1114.5353      	1114.5118      	1114.5021      	1114.51        	1114.5234      	1114.4962      	1114.4954      	1114.4904      	1114.4744      	1114.493       	1114.4724      	1114.487       	1114.4885      	1114.4233      	1114.4374      	1114.455       	1114.4994      	1114.4257      	1114.4844      	1114.4792      	1114.5118      	1114.4581      	1114.4904      	1114.4728      	1114.4744      	1114.4312      	1114.4733      	1114.5085      	1114.407       	1114.5016      	1114.4377      	1114.4675      	1114.5198      	1114.4653      	1114.5167      	1114.5018      	1114.4512      	1114.471       	1114.5287      	1114.4465      	1114.4598      	1114.4755      	1114.4464      	1114.4806      	1114.5061      	1114.4363      	1114.4703      	1114.4661      	1114.482       	1114.4728      	1114.4701      	1114.4711      	1114.465       	1114.4685      	1114.4608      	1114.4702      	1114.5392      	1114.3922      	1114.4747      	1114.4235      	1114.4165      	1114.4366      	1114.4572      	1114.4497      	1114.45        	1114.4822      	1114.3636      	1113.8904      	1113.8142      	
1114.7063      	1114.6921      	1114.7572      	1114.7225      	1114.6874      	1114.7219      	1114.6484      	1114.683       	1114.6456      	1114.6545      	1114.6583      	1114.6815      	1114.6544      	1114.646       	1114.6777      	1114.6301      	1114.6571      	1114.692       	1114.6317      	1114.6407      	1114.6713      	1114.6349      	1114.6499      	1114.6093      	1114.6371      	1114.6521      	1114.6643      	1114.6525      	1114.6346      	1114.6614      	1114.6389      	1114.6971      	1114.7054      	1114.6311      	1114.7372      	1114.6658      	1114.6942      	1114.6743      	1114.6605      	1114.6547      	1114.6519      	1114.6549      	1114.6677      	1114.66        	1114.6831      	1114.628       	1114.6769      	1114.6659      	1114.605       	1114.645       	1114.6462      	1114.6659      	1114.6561      	1114.6869      	1114.6675      	1114.679       	1114.732       	1114.6759      	1114.6713      	1114.6658      	1114.6373      	1114.6565      	1114.627       	1114.6355      	1114.6172      	1114.6486      	1114.6356      	1114.629       	1114.5929      	1114.6324      	1114.629       	1114.5667      	1114.6466      	1114.5946      	1114.6107      	1114.5632      	1114.5447      	1114.5585      	1114.5818      	1114.5265      	1114.5651      	1114.5751      	1114.5516      	1114.5382      	1114.5016      	1114.554       	1114.5789      	1114.512       	1114.5416      	1114.5339      	1114.5244      	1114.5643      	1114.5431      	1114.6165      	1114.5573      	1114.6045      	1114.6295      	1114.5569      	1114.0798      	1113.9949      	
1114.9713      	1114.9501      	1114.9788      	1114.9244      	1114.9543      	1114.9073      	1114.937       	1114.9249      	1114.9323      	1114.9056      	1114.9348      	1114.8973      	1114.8918      	1114.9231      	1114.8702      	1114.921       	1114.8989      	1114.8859      	1114.8783      	1114.8545      	1114.8853      	1114.8667      	1114.8706      	1114.9001      	1114.8894      	1114.91        	1114.8566      	1114.9138      	1114.8845      	1114.9254      	1114.9089      	1114.8721      	1114.8746      	1114.9235      	1114.8601      	1114.8252      	1114.8678      	1114.854       	1114.7972      	1114.7917      	1114.8215      	1114.7899      	1114.814       	1114.8059      	1114.7947      	1114.7781      	1114.7776      	1114.8065      	1114.8353      	1114.8134      	1114.8075      	1114.8611      	1114.7659      	1114.8185      	1114.8202      	1114.8119      	1114.862       	1114.7827      	1114.8483      	1114.779       	1114.8623      	1114.8013      	1114.7798      	1114.8323      	1114.8177      	1114.802       	1114.789       	1114.7719      	1114.7715      	1114.7775      	1114.7623      	1114.7954      	1114.6792      	1114.7794      	1114.773       	1114.7262      	1114.7303      	1114.6759      	1114.7415      	1114.7212      	1114.689       	1114.6769      	1114.6472      	1114.6863      	1114.6786      	1114.734       	1114.6444      	1114.6932      	1114.7316      	1114.7295      	1114.7622      	1114.7498      	1114.7063      	1114.6787      	1114.7356      	1114.7896      	1114.664       	1114.802       	1114.4509      	1114.1766      	
1115.329       	1115.2634      	1115.3127      	1115.2863      	1115.2655      	1115.244       	1115.2567      	1115.2559      	1115.2412      	1115.2593      	1115.2919      	1115.2737      	1115.2462      	1115.2651      	1115.2184      	1115.2274      	1115.2366      	1115.2064      	1115.2207      	1115.2382      	1115.2202      	1115.2412      	1115.2445      	1115.2493      	1115.2528      	1115.2921      	1115.2583      	1115.2395      	1115.2332      	1115.2587      	1115.2366      	1115.2167      	1115.2126      	1115.223       	1115.2635      	1115.204       	1115.2388      	1115.2422      	1115.1615      	1115.2686      	1115.1394      	1115.2434      	1115.1522      	1115.2231      	1115.1853      	1115.1987      	1115.1909      	1115.2523      	1115.2068      	1115.2576      	1115.1968      	1115.224       	1115.1776      	1115.2244      	1115.1702      	1115.2228      	1115.1912      	1115.2004      	1115.1829      	1115.2141      	1115.2065      	1115.1559      	1115.1946      	1115.2429      	1115.1456      	1115.1755      	1115.1343      	1115.1577      	1115.1874      	1115.0597      	1115.1384      	1115.1427      	1115.1486      	1115.1246      	1115.1307      	1115.1346      	1115.1249      	1115.1011      	1115.1077      	1115.1045      	1115.0736      	1115.0769      	1115.0896      	1115.1261      	1115.0736      	1115.1011      	1115.0635      	1115.1323      	1115.1382      	1115.0938      	1115.1534      	1115.0813      	1115.1584      	1115.2148      	1115.1743      	1115.2108      	1115.2225      	1115.1455      	1114.8005      	1114.5375      	
1115.4226      	1115.3959      	1115.3696      	1115.4562      	1115.4568      	1115.3983      	1115.3726      	1115.3615      	1115.3698      	1115.3816      	1115.3523      	1115.4403      	1115.4116      	1115.3547      	1115.3943      	1115.3744      	1115.4132      	1115.3828      	1115.3907      	1115.4071      	1115.3701      	1115.397       	1115.3892      	1115.4064      	1115.4042      	1115.4031      	1115.4425      	1115.4272      	1115.3999      	1115.437       	1115.4075      	1115.3861      	1115.4005      	1115.3665      	1115.3729      	1115.3322      	1115.3844      	1115.3612      	1115.3287      	1115.3583      	1115.3243      	1115.3263      	1115.369       	1115.3597      	1115.3638      	1115.3641      	1115.3221      	1115.3846      	1115.3918      	1115.3185      	1115.3805      	1115.3817      	1115.3964      	1115.4043      	1115.374       	1115.3792      	1115.3923      	1115.3651      	1115.3645      	1115.418       	1115.3834      	1115.3516      	1115.3583      	1115.3722      	1115.3231      	1115.3633      	1115.4021      	1115.3442      	1115.3032      	1115.3259      	1115.3396      	1115.0658      	1115.046       	1115.229       	1115.3351      	1115.1895      	1115.1727      	1115.2249      	1115.3352      	1115.2959      	1115.2823      	1115.2949      	1115.301       	1115.2938      	1115.2991      	1115.2402      	1115.2885      	1115.2977      	1115.2966      	1115.2921      	1115.2661      	1115.3208      	1115.3439      	1115.3248      	1115.3424      	1115.3478      	1115.342       	1115.4591      	1115.2487      	1114.9757      	
1115.4304      	1115.3909      	1115.405       	1115.406       	1115.3894      	1115.3977      	1115.3596      	1115.3594      	1115.3741      	1115.4034      	1115.3591      	1115.4097      	1115.4713      	1115.3773      	1115.3892      	1115.412       	1115.3452      	1115.406       	1115.4028      	1115.4218      	1115.3956      	1115.4119      	1115.4084      	1115.4663      	1115.359       	1115.4182      	1115.4357      	1115.421       	1115.4314      	1115.414       	1115.4628      	1115.4106      	1115.4327      	1115.3563      	1115.4517      	1115.4454      	1115.4628      	1115.4375      	1115.3751      	1115.3639      	1115.3616      	1115.3712      	1115.3712      	1115.4061      	1115.4376      	1115.4827      	1115.4539      	1115.4304      	1115.4684      	1115.4781      	1115.4897      	1115.4363      	1115.4755      	1115.4839      	1115.5027      	1115.4823      	1115.5099      	1115.5044      	1115.462       	1115.4513      	1115.5188      	1115.4362      	1115.4491      	1115.5194      	1115.4524      	1115.3606      	1115.1681      	1115.5428      	1115.2468      	1115.2222      	1115.4         	1115.2117      	1115.4082      	1115.3553      	1115.5266      	1115.5161      	1115.6453      	1115.8772      	1115.5126      	1115.3895      	1115.4652      	1115.4161      	1115.4056      	1115.4124      	1115.4514      	1115.4344      	1115.3944      	1115.4312      	1115.4734      	1115.3912      	1115.4648      	1115.461       	1115.5011      	1115.4701      	1115.4669      	1115.4669      	1115.4784      	1115.5226      	1115.3243      	1115.1033      	
1115.2683      	1115.242       	1115.2892      	1115.2787      	1115.3005      	1115.2714      	1115.311       	1115.2262      	1115.2421      	1115.2683      	1115.2733      	1115.2638      	1115.3154      	1115.2493      	1115.3094      	1115.2717      	1115.3138      	1115.2366      	1115.304       	1115.2793      	1115.3146      	1115.3147      	1115.283       	1115.3348      	1115.3303      	1115.3313      	1115.342       	1115.3429      	1115.3723      	1115.34        	1115.3254      	1115.3298      	1115.2794      	1115.3351      	1115.2638      	1115.3405      	1115.3147      	1115.2766      	1115.3433      	1115.3019      	1115.3184      	1115.3151      	1115.261       	1115.3228      	1115.3027      	1115.3456      	1115.2928      	1115.299       	1115.3711      	1115.3368      	1115.3474      	1115.3666      	1115.4097      	1115.3192      	1115.3495      	1115.2908      	1115.395       	1115.3569      	1115.4044      	1115.2928      	1115.3224      	1115.3738      	1115.418       	1115.1356      	1115.1575      	1114.9869      	1115.1573      	1115.2804      	1115.1805      	1115.239       	1115.327       	1115.345       	1115.3405      	1115.2794      	1115.308       	1115.2805      	1115.3872      	1115.8661      	1115.6411      	1115.2788      	1115.3032      	1115.2773      	1115.3038      	1115.3219      	1115.3038      	1115.3318      	1115.3179      	1115.3475      	1115.3572      	1115.3331      	1115.372       	1115.3523      	1115.3605      	1115.3915      	1115.4119      	1115.3722      	1115.3992      	1115.4498      	1115.406       	1115.1852      	
1115.3055      	1115.2483      	1115.2723      	1115.2687      	1115.2466      	1115.2678      	1115.202       	1115.2632      	1115.243       	1115.2822      	1115.2549      	1115.287       	1115.3403      	1115.2594      	1115.3225      	1115.2606      	1115.3116      	1115.2949      	1115.3054      	1115.2916      	1115.3204      	1115.3181      	1115.2651      	1115.3286      	1115.3439      	1115.3176      	1115.3125      	1115.3458      	1115.3508      	1115.3217      	1115.3074      	1115.3202      	1115.3572      	1115.3156      	1115.278       	1115.3284      	1115.3246      	1115.3346      	1115.3529      	1115.3257      	1115.3993      	1115.3055      	1115.2788      	1115.301       	1115.3214      	1115.2651      	1115.279       	1115.3503      	1115.3768      	1115.2644      	1115.2996      	1115.3466      	1115.4656      	1115.237       	1115.2803      	1115.353       	1115.3552      	1115.4211      	1114.9867      	1115.1454      	1115.3936      	1114.9923      	1115.1514      	1115.1384      	1115.2483      	1115.1925      	1115.2511      	1115.2604      	1115.2412      	1115.2437      	1115.2803      	1115.2244      	1115.2783      	1115.2467      	1115.2068      	1115.3949      	1115.3691      	1115.4927      	1115.6995      	1115.2466      	1115.2817      	1115.2482      	1115.2921      	1115.293       	1115.2415      	1115.2444      	1115.2434      	1115.2544      	1115.1946      	1115.2527      	1115.285       	1115.2872      	1115.3126      	1115.354       	1115.2864      	1115.313       	1115.3597      	1115.3167      	1115.3572      	1115.3547      	
1115.5331      	1115.5739      	1115.561       	1115.5392      	1115.5177      	1115.5214      	1115.4862      	1115.5575      	1115.479       	1115.563       	1115.4901      	1115.5747      	1115.5898      	1115.5265      	1115.5189      	1115.5476      	1115.5496      	1115.5533      	1115.5288      	1115.5697      	1115.5282      	1115.532       	1115.5527      	1115.5433      	1115.5594      	1115.531       	1115.5323      	1115.5752      	1115.5206      	1115.538       	1115.5369      	1115.5295      	1115.5093      	1115.5292      	1115.4911      	1115.5118      	1115.5352      	1115.4935      	1115.4825      	1115.5302      	1115.5415      	1115.5028      	1115.5161      	1115.5875      	1115.4872      	1115.5287      	1115.5427      	1115.5798      	1115.5618      	1115.505       	1115.549       	1115.5513      	1115.7301      	1115.452       	1115.3854      	1115.3121      	1115.3951      	1115.5853      	1115.403       	1115.5023      	1115.488       	1115.5322      	1115.5126      	1115.5428      	1115.495       	1115.5138      	1115.5471      	1115.4899      	1115.5142      	1115.51        	1115.5591      	1115.5243      	1115.5636      	1115.5898      	1115.3446      	1115.4462      	1115.634       	1115.6414      	1115.9874      	1115.6118      	1115.5146      	1115.5037      	1115.48        	1115.4786      	1115.4839      	1115.4421      	1115.497       	1115.4786      	1115.4402      	1115.469       	1115.4302      	1115.4869      	1115.4575      	1115.4675      	1115.4706      	1115.4788      	1115.4968      	1115.4934      	1115.3976      	1115.4355      	
1115.9891      	1116.0271      	1115.9949      	1115.9933      	1115.9604      	1115.9966      	1115.9875      	1116.0317      	1115.9597      	1115.9637      	1115.9437      	1116.0151      	1116.0204      	1116.0361      	1116.0143      	1116.0548      	1115.9701      	1116.0513      	1116.0476      	1116.0149      	1116.045       	1116.0444      	1116.0411      	1116.0328      	1116.0498      	1115.9911      	1115.9836      	1116.0359      	1116.023       	1115.9937      	1115.9987      	1115.9783      	1116.0142      	1116.0157      	1115.9481      	1116.0164      	1116.0167      	1116.0125      	1115.9956      	1115.9956      	1115.8737      	1115.8547      	1115.8678      	1115.8036      	1115.8485      	1115.8145      	1115.8793      	1115.9575      	1116.0066      	1115.7288      	1115.7627      	1115.7233      	1115.7753      	1115.8722      	1115.901       	1115.814       	1115.8339      	1115.9329      	1115.8375      	1115.8406      	1115.8113      	1115.822       	1115.8319      	1115.8163      	1115.7921      	1115.8739      	1115.7935      	1115.8579      	1115.8562      	1115.8562      	1115.8152      	1115.8464      	1115.8433      	1115.823       	1115.8434      	1115.7551      	1115.9614      	1115.8982      	1116.0043      	1116.0798      	1115.8049      	1115.7859      	1115.7831      	1115.7898      	1115.758       	1115.8097      	1115.7654      	1115.7937      	1115.8077      	1115.8104      	1115.8179      	1115.7871      	1115.828       	1115.8267      	1115.829       	1115.8699      	1115.8403      	1115.8406      	1115.8629      	1115.8435      	
1116.2306      	1116.1947      	1116.1869      	1116.1873      	1116.2036      	1116.2118      	1116.1836      	1116.2249      	1116.224       	1116.2573      	1116.1925      	1116.1974      	1116.2709      	1116.2396      	1116.3069      	1116.3088      	1116.3024      	1116.2708      	1116.2781      	1116.2869      	1116.3132      	1116.3446      	1116.2336      	1116.2799      	1116.2377      	1116.2316      	1116.2853      	1116.2762      	1116.3173      	1116.2751      	1116.2542      	1116.2316      	1116.2284      	1116.2515      	1116.1832      	1116.22        	1116.1954      	1116.2096      	1116.1854      	1116.2433      	1116.1998      	1116.2615      	1116.1519      	1116.2468      	1116.3501      	1115.813       	1115.9714      	1116.2618      	1116.1724      	1116.0491      	1116.0864      	1116.1743      	1116.0997      	1116.2004      	1116.2358      	1116.1907      	1116.2056      	1116.154       	1116.1917      	1116.1779      	1116.2224      	1116.159       	1116.1711      	1116.1831      	1116.1737      	1116.1604      	1116.1489      	1116.1573      	1116.1747      	1116.1626      	1116.1697      	1116.2378      	1116.0443      	1116.1755      	1116.1893      	1116.1755      	1116.2416      	1116.3755      	1116.3505      	1116.4421      	1116.1703      	1116.1288      	1116.1177      	1116.158       	1116.1251      	1116.1792      	1116.1375      	1116.1736      	1116.1208      	1116.2041      	1116.1495      	1116.2322      	1116.183       	1116.2117      	1116.1703      	1116.2351      	1116.2877      	1116.249       	1116.1323      	1116.1157      	
1116.3256      	1116.2863      	1116.283       	1116.2599      	1116.2468      	1116.2877      	1116.257       	1116.2512      	1116.266       	1116.3242      	1116.303       	1116.3303      	1116.3253      	1116.3928      	1116.3856      	1116.3947      	1116.337       	1116.3967      	1116.3077      	1116.3286      	1116.3582      	1116.3221      	1116.3577      	1116.378       	1116.3359      	1116.3699      	1116.3455      	1116.3351      	1116.334       	1116.3511      	1116.3396      	1116.2999      	1116.3097      	1116.2909      	1116.3241      	1116.3376      	1116.3385      	1116.3495      	1116.3333      	1116.354       	1116.4333      	1116.2635      	1115.9058      	1116.1477      	1116.1926      	1116.2104      	1116.3019      	1116.3821      	1116.3607      	1116.3721      	1116.4089      	1116.4369      	1116.3927      	1116.3982      	1116.3905      	1116.3413      	1116.3905      	1116.349       	1116.3143      	1116.3259      	1116.3131      	1116.3214      	1116.3016      	1116.3263      	1116.3107      	1116.3276      	1116.328       	1116.3778      	1116.3268      	1116.2957      	1116.3358      	1116.2965      	1116.3025      	1116.4025      	1116.279       	1116.3468      	1116.3416      	1116.4194      	1116.728       	1116.6093      	1116.3894      	1116.3118      	1116.3318      	1116.2927      	1116.3687      	1116.3441      	1116.3356      	1116.3882      	1116.3396      	1116.4003      	1116.4204      	1116.377       	1116.4381      	1116.3944      	1116.3694      	1116.412       	1116.3773      	1116.3518      	1116.2522      	1116.2605      	
1116.6533      	1116.638       	1116.6401      	1116.6344      	1116.6389      	1116.6298      	1116.6635      	1116.6635      	1116.6787      	1116.6746      	1116.6669      	1116.6929      	1116.6776      	1116.7145      	1116.6592      	1116.6709      	1116.689       	1116.704       	1116.6759      	1116.6853      	1116.7076      	1116.6906      	1116.6709      	1116.684       	1116.6736      	1116.6567      	1116.6636      	1116.6234      	1116.7385      	1116.5919      	1116.5955      	1116.6654      	1116.5669      	1116.6671      	1116.5853      	1116.6564      	1116.6118      	1116.73        	1116.7052      	1116.7994      	1116.2365      	1116.3363      	1116.3342      	1116.5513      	1116.6448      	1116.7059      	1116.6288      	1116.6343      	1116.6549      	1116.6765      	1116.6187      	1116.6138      	1116.5884      	1116.6289      	1116.5903      	1116.5754      	1116.6099      	1116.5641      	1116.6177      	1116.5878      	1116.5402      	1116.5643      	1116.5431      	1116.5076      	1116.5514      	1116.507       	1116.4686      	1116.5521      	1116.5292      	1116.5548      	1116.5009      	1116.5286      	1116.501       	1116.6157      	1116.5128      	1116.5847      	1116.5857      	1116.5806      	1116.8282      	1116.9312      	1116.6345      	1116.5437      	1116.5358      	1116.5509      	1116.5493      	1116.5437      	1116.5881      	1116.5667      	1116.6072      	1116.5919      	1116.5558      	1116.5935      	1116.552       	1116.5573      	1116.587       	1116.5903      	1116.6208      	1116.5791      	1116.4366      	1116.4357      	
1116.7898      	1116.8173      	1116.831       	1116.829       	1116.8928      	1116.8596      	1116.9021      	1116.8566      	1116.9078      	1116.8575      	1116.9005      	1116.879       	1116.8951      	1116.9246      	1116.8884      	1116.9081      	1116.9962      	1116.8136      	1116.8319      	1117.0483      	1116.9097      	1116.9153      	1116.8921      	1116.8771      	1116.9099      	1116.8809      	1116.8768      	1116.9202      	1116.8876      	1116.8563      	1116.8778      	1116.8795      	1116.8518      	1116.8958      	1116.906       	1116.8865      	1116.9211      	1116.9034      	1116.9337      	1116.6606      	1116.5282      	1116.7006      	1116.7952      	1116.8401      	1116.9779      	1116.8835      	1116.955       	1116.8784      	1116.9484      	1116.9381      	1116.9061      	1116.9255      	1116.8625      	1116.9308      	1116.8726      	1116.8638      	1116.8422      	1116.9019      	1116.8049      	1116.8167      	1116.8658      	1116.8228      	1116.8003      	1116.8142      	1116.8406      	1116.8105      	1116.8527      	1116.8003      	1116.835       	1116.8446      	1116.8254      	1116.8503      	1116.8169      	1116.842       	1116.7941      	1116.8358      	1116.8726      	1116.9103      	1117.184       	1117.1489      	1116.9681      	1116.7849      	1116.7288      	1116.7993      	1116.8411      	1116.8035      	1116.8138      	1116.8939      	1116.8556      	1116.9294      	1116.8745      	1116.9037      	1116.8878      	1116.9171      	1116.9147      	1116.9167      	1116.9159      	1116.9321      	1116.8275      	1116.7976      	
1116.5679      	1116.5702      	1116.587       	1116.5809      	1116.5907      	1116.5464      	1116.6241      	1116.6324      	1116.6229      	1116.5868      	1116.6353      	1116.6041      	1116.6157      	1116.6534      	1116.6486      	1116.656       	1116.7496      	1116.553       	1116.68        	1116.6542      	1116.6497      	1116.672       	1116.6353      	1116.6779      	1116.6191      	1116.6384      	1116.6218      	1116.5718      	1116.6375      	1116.5939      	1116.6232      	1116.6372      	1116.6099      	1116.6196      	1116.6375      	1116.616       	1116.6794      	1116.5833      	1116.78        	1116.3251      	1116.2681      	1116.4651      	1116.507       	1116.5747      	1116.7399      	1116.6161      	1116.7551      	1116.6738      	1116.7024      	1116.6818      	1116.7063      	1116.6528      	1116.6605      	1116.7161      	1116.6779      	1116.5698      	1116.6455      	1116.6284      	1116.6056      	1116.5958      	1116.6113      	1116.6262      	1116.6365      	1116.6149      	1116.6534      	1116.6455      	1116.5631      	1116.7197      	1116.668       	1116.5914      	1116.6418      	1116.6536      	1116.6313      	1116.6465      	1116.629       	1116.6647      	1116.7073      	1116.6658      	1116.7909      	1117.0304      	1116.9221      	1116.7283      	1116.5896      	1116.6549      	1116.6423      	1116.6766      	1116.7316      	1116.7195      	1116.7169      	1116.712       	1116.7816      	1116.7283      	1116.7596      	1116.7048      	1116.8231      	1116.7129      	1116.806       	1116.8096      	1116.5713      	1116.4202      	
1116.0206      	1116.0068      	1116.0337      	1116.045       	1116.0648      	1116.0667      	1116.0743      	1116.0798      	1116.0585      	1116.0603      	1116.0992      	1116.1248      	1116.1023      	1116.1571      	1116.121       	1116.1528      	1116.1372      	1116.1125      	1116.1589      	1116.1141      	1116.1687      	1116.1351      	1116.1626      	1116.1415      	1116.1311      	1116.1945      	1116.1506      	1116.1575      	1116.2084      	1116.1807      	1116.1532      	1116.1511      	1116.1818      	1116.1765      	1116.1656      	1116.1965      	1116.1956      	1116.2896      	1116.2654      	1116.0164      	1115.8356      	1116.0994      	1116.0787      	1116.0955      	1116.2197      	1116.2413      	1116.2771      	1116.2054      	1116.2649      	1116.218       	1116.2494      	1116.2688      	1116.3951      	1116.1512      	1116.1118      	1116.2499      	1116.3108      	1116.2362      	1116.2429      	1116.2219      	1116.246       	1116.2327      	1116.238       	1116.2349      	1116.2524      	1116.1669      	1116.2465      	1116.2397      	1116.277       	1116.1914      	1116.2869      	1116.2307      	1116.2649      	1116.2571      	1116.219       	1116.3087      	1116.2614      	1116.2942      	1116.4082      	1116.6915      	1116.58        	1116.3206      	1116.2937      	1116.3494      	1116.3218      	1116.314       	1116.3473      	1116.3853      	1116.359       	1116.373       	1116.4458      	1116.2607      	1116.3401      	1116.4382      	1116.3663      	1116.4181      	1116.384       	1116.3645      	1116.3871      	1116.3589      	
1115.3478      	1115.3136      	1115.3507      	1115.2969      	1115.3364      	1115.3153      	1115.3285      	1115.3354      	1115.344       	1115.3403      	1115.3407      	1115.3951      	1115.3857      	1115.4657      	1115.4471      	1115.4287      	1115.4104      	1115.407       	1115.4259      	1115.3905      	1115.3995      	1115.3809      	1115.42        	1115.4352      	1115.368       	1115.4615      	1115.4233      	1115.4674      	1115.4493      	1115.496       	1115.3673      	1115.4178      	1115.4841      	1115.448       	1115.4517      	1115.467       	1115.4998      	1115.4958      	1115.5513      	1115.5009      	1115.0853      	1115.3065      	1115.4646      	1115.3673      	1115.3671      	1115.5657      	1115.5701      	1115.6036      	1115.5936      	1115.5475      	1115.5692      	1115.595       	1115.5657      	1115.5436      	1115.6222      	1115.5807      	1115.5802      	1115.6262      	1115.5641      	1115.5671      	1115.5216      	1115.5626      	1115.5696      	1115.578       	1115.6329      	1115.3881      	1115.5901      	1115.6245      	1115.5741      	1115.5892      	1115.5784      	1115.6085      	1115.634       	1115.6268      	1115.6492      	1115.6223      	1115.6292      	1115.7343      	1115.6755      	1115.9349      	1116.1211      	1115.7812      	1115.6827      	1115.6865      	1115.7227      	1115.7413      	1115.7087      	1115.766       	1115.7207      	1115.6929      	1115.7996      	1115.7814      	1115.7178      	1115.7811      	1115.7957      	1115.7374      	1115.7651      	1115.7391      	1115.7719      	1115.7455      	
1115.5123      	1115.5232      	1115.5165      	1115.4869      	1115.5029      	1115.4711      	1115.461       	1115.5457      	1115.4575      	1115.4888      	1115.4834      	1115.4943      	1115.4585      	1115.465       	1115.5253      	1115.4298      	1115.4241      	1115.3937      	1115.4337      	1115.3644      	1115.3579      	1115.4478      	1115.3126      	1115.4039      	1115.3365      	1115.3239      	1115.3585      	1115.368       	1115.3713      	1115.3303      	1115.3562      	1115.3329      	1115.422       	1115.393       	1115.3757      	1115.388       	1115.3899      	1115.3859      	1115.4751      	1115.5233      	1115.1182      	1115.1791      	1115.2001      	1115.1935      	1115.3376      	1115.39        	1115.3835      	1115.3759      	1115.4323      	1115.428       	1115.4303      	1115.4045      	1115.4629      	1115.3976      	1115.3748      	1115.3848      	1115.4027      	1115.4376      	1115.2828      	1115.4069      	1115.3516      	1115.3678      	1115.344       	1115.3633      	1115.314       	1115.2948      	1115.4777      	1115.383       	1115.3591      	1115.3334      	1115.3785      	1115.3231      	1115.3427      	1115.3083      	1115.3702      	1115.3009      	1115.3916      	1115.41        	1115.3602      	1115.5188      	1115.759       	1115.5243      	1115.3625      	1115.3231      	1115.3569      	1115.385       	1115.3109      	1115.3511      	1115.3046      	1115.383       	1115.3024      	1115.3898      	1115.41        	1115.3652      	1115.3308      	1115.3833      	1115.518       	1115.3         	1115.1389      	1115.1932      	
1117.019       	1117.0624      	1116.9973      	1117.036       	1117.027       	1117.0125      	1117.0292      	1117.035       	1117.0526      	1117.0731      	1116.9745      	1116.9835      	1116.7319      	1117.014       	1117.1249      	1117.1793      	1117.0664      	1116.9578      	1116.9514      	1117.0289      	1117.0402      	1116.9503      	1116.9669      	1117.0007      	1116.961       	1116.9552      	1116.9019      	1116.967       	1116.9164      	1116.8673      	1116.9894      	1116.9332      	1116.9357      	1116.8827      	1116.8971      	1116.8789      	1116.927       	1116.9038      	1116.8953      	1117.0084      	1116.721       	1116.5292      	1116.7811      	1116.7539      	1116.6654      	1116.8921      	1116.8843      	1116.8711      	1116.8796      	1116.8547      	1116.885       	1116.7706      	1116.8519      	1116.8257      	1116.7975      	1116.8135      	1116.785       	1116.801       	1116.8059      	1116.7766      	1116.7751      	1116.7964      	1116.698       	1116.7366      	1116.7219      	1116.7795      	1116.6711      	1116.8152      	1116.7642      	1116.7236      	1116.7255      	1116.7427      	1116.7471      	1116.7424      	1116.7278      	1116.7001      	1116.7626      	1116.6818      	1116.7576      	1116.9143      	1117.154       	1116.9005      	1116.7222      	1116.7148      	1116.7128      	1116.693       	1116.7383      	1116.6534      	1116.7124      	1116.7203      	1116.6718      	1116.6678      	1116.638       	1116.646       	1116.6438      	1116.658       	1116.6414      	1116.5599      	1116.5599      	1116.5317      	
