# www.neaspec.com
# Scan:	 	Whitelight Imaging
# Project:	 	20251007_PS
# Description:	 	
# Date:	 	10/07/2025 13:27:15
# Scanner Center Position (X, Y):	[µm]	49.99	50.01	 
# Rotation:	[°]	0	 	 
# Scan Area (X, Y, Z):	[µm]	5.000	5.000	0.000
# Pixel Area (X, Y, Z):	[px]	100	100	1
# Interferometer Center/Distance:	[µm]	548.096	0.000	 
# Averaging:	 	1	 	 
# Integration time:	[ms]	5	 	 
# Wavenumber Scaling:	 	1.000000	 	 
# Laser Source:	 	4.5-15 µm nano-FTIR laser
# Detector:	 	R
# Target Wavelength:	[µm]	7.502	 	 
# Demodulation Mode:	 	Fourier
# Tip Frequency:	[Hz]	241,340.500	 	 
# Tip Amplitude:	[mV]	45.700	 	 
# Tapping Amplitude:	[nm]	77.130	 	 
# Modulation Frequency:	[Hz]	0.000	 	 
# Modulation Amplitude:	[mV]	0.000	 	 
# Modulation Offset:	[mV]	0.000	 	 
# Setpoint:	[%]	79.75	 	 
# Regulator (P, I, D):	 	4.206850	8.625812	1.000000
# Tip Potential:	[mV]	0.000	 	 
# M1A Scaling:	[nm/V]	0.426	 	 
# M1A Cantilever Factor:	 	1,000	 	 
# Q-Factor:	 	487.4	 	 
# Version:	 	2.1.11536.0
106.454384     	106.447205     	105.26065      	106.25364      	107.2017       	105.95432      	106.50446      	105.71468      	106.50013      	106.70123      	106.74206      	107.272484     	107.01549      	107.45668      	108.53595      	109.80741      	105.236755     	99.09424       	95.89089       	94.43614       	92.92601       	93.36234       	93.67445       	95.186485      	94.84485       	95.15026       	95.466324      	95.41453       	95.8383        	95.13217       	95.45947       	95.743744      	95.596794      	95.42335       	95.63639       	95.61824       	95.33912       	96.02687       	95.81664       	95.60329       	95.63622       	95.82722       	95.42364       	95.98511       	96.38407       	95.436134      	96.50397       	94.49324       	96.609055      	95.72356       	96.53258       	93.81614       	96.11641       	99.448685      	95.48119       	96.13267       	101.42102      	105.83882      	106.45621      	106.49582      	106.95227      	106.5461       	107.01528      	105.74256      	107.01106      	106.60218      	105.84588      	106.57576      	106.0366       	106.92147      	105.91834      	106.39563      	106.93718      	106.914825     	106.274254     	106.30031      	106.53526      	106.37424      	106.61446      	106.54894      	106.29606      	106.72064      	106.619354     	105.90237      	106.275826     	106.797134     	106.90306      	105.95991      	107.2737       	107.30849      	106.085754     	106.31313      	106.02785      	106.70073      	106.375824     	106.386925     	107.30839      	107.652435     	106.53349      	106.580025     	
106.44729      	106.54291      	106.296814     	106.88544      	106.325836     	106.19505      	106.05317      	106.65092      	106.169655     	106.80228      	106.80098      	107.550835     	109.58743      	108.75616      	107.45336      	109.70737      	108.2862       	98.66851       	96.02855       	93.56976       	94.86099       	93.87101       	95.37525       	95.37703       	94.66899       	95.66822       	95.84981       	95.8571        	96.36783       	95.26035       	95.95917       	95.64996       	95.902405      	95.799576      	96.96935       	96.218346      	96.1267        	96.44541       	96.76541       	96.95226       	95.96705       	95.13756       	95.405785      	97.35134       	96.16365       	97.824585      	97.346535      	97.2206        	98.0125        	95.8679        	96.77464       	98.06961       	95.77716       	97.47099       	97.69559       	101.51966      	105.65501      	106.331024     	105.91666      	105.06782      	106.46949      	107.03054      	106.232605     	106.00319      	105.95518      	106.24165      	106.35703      	105.72378      	106.46723      	106.79152      	106.14398      	106.403915     	106.35437      	105.98779      	106.1082       	105.557076     	106.13991      	106.21391      	106.14786      	106.2735       	106.583565     	105.80031      	106.761665     	106.45001      	107.11688      	106.27114      	106.405045     	107.52776      	106.582924     	106.62817      	107.132774     	106.616005     	106.80403      	107.59844      	108.12145      	107.66978      	109.34738      	108.61482      	107.46725      	106.08977      	
105.69885      	106.1798       	104.59775      	106.85568      	105.83232      	106.59013      	106.74705      	106.02681      	105.89654      	106.07854      	106.05278      	106.655754     	106.318245     	106.97202      	107.46689      	108.36194      	109.0249       	101.461754     	97.12507       	94.3476        	93.12784       	92.8452        	93.26446       	94.41243       	94.37169       	95.20792       	95.792496      	94.61074       	94.883354      	94.94742       	95.01497       	94.973076      	94.95072       	94.731064      	94.984665      	95.437164      	95.11485       	96.21756       	96.1801        	99.04435       	99.03521       	99.03987       	99.02092       	98.90271       	99.59461       	100.40219      	98.39177       	98.97235       	99.97264       	99.48449       	100.946175     	99.946754      	99.357735      	100.458626     	105.68172      	107.28186      	106.63658      	106.26307      	105.84858      	105.97995      	106.22327      	106.352715     	106.482605     	104.97861      	105.58223      	106.40576      	106.09182      	106.22611      	106.035576     	106.38037      	105.86684      	106.24074      	106.99036      	105.87469      	106.70714      	106.92623      	106.88198      	107.01091      	106.69185      	106.371826     	107.70441      	106.905304     	107.4926       	106.902145     	107.182785     	108.94286      	109.728065     	107.53322      	106.97497      	107.05253      	110.46267      	109.58381      	110.286674     	110.961685     	108.906494     	109.95887      	110.08288      	109.31609      	107.74819      	104.50818      	
106.14879      	105.19211      	103.88173      	106.98171      	105.34533      	105.39096      	105.807335     	105.251724     	105.83098      	105.6293       	105.293495     	105.59895      	106.11459      	106.49086      	106.69031      	105.68675      	111.036545     	103.50388      	97.89931       	94.54766       	92.5766        	92.984055      	92.887436      	93.8742        	94.709885      	96.4734        	95.14697       	94.359695      	94.34873       	95.76078       	95.68036       	95.12264       	94.080666      	93.597565      	93.63292       	93.97634       	96.70041       	94.17808       	96.48521       	97.08774       	98.032875      	99.46562       	96.471985      	100.95892      	102.6865       	101.95641      	102.82022      	104.05282      	103.442856     	104.023834     	107.18188      	106.061356     	106.67044      	105.5988       	105.29435      	106.473915     	105.77477      	105.28516      	106.01076      	104.59055      	104.72996      	104.45836      	103.83456      	103.53805      	106.288895     	105.8634       	106.10351      	105.924644     	106.69522      	105.683945     	105.5207       	106.13795      	105.72029      	105.66564      	105.83099      	106.23777      	106.51735      	106.341644     	105.32226      	106.2307       	106.74097      	107.26061      	105.57104      	106.45613      	106.59072      	106.05961      	106.06149      	106.6941       	106.708855     	107.33588      	107.28506      	106.26444      	106.41649      	105.30265      	107.50173      	106.818275     	106.16722      	107.32456      	106.315475     	105.6391       	
104.594635     	104.073494     	104.91436      	105.0099       	105.10941      	104.67195      	105.60966      	104.70089      	104.58458      	105.1127       	104.73057      	105.18026      	105.33973      	104.9643       	104.64562      	105.6883       	109.18576      	103.16266      	97.54434       	94.84504       	93.12834       	92.37462       	92.50042       	94.11453       	93.87913       	93.90438       	94.56176       	94.68159       	93.13293       	92.80654       	94.144264      	93.17609       	94.59907       	94.646645      	93.26171       	92.9265        	98.374084      	95.36917       	98.24587       	98.83121       	98.667656      	99.79514       	102.02247      	105.37816      	105.184845     	106.93262      	107.32031      	107.60479      	107.58015      	107.198555     	106.258095     	104.62447      	105.87248      	105.42117      	105.36964      	106.21123      	106.048035     	105.30992      	105.42979      	105.9841       	105.90823      	105.47231      	105.5077       	105.16361      	104.6916       	105.89157      	106.15341      	105.46647      	105.89527      	105.40892      	105.62663      	105.175354     	105.431984     	105.45313      	105.13132      	104.95858      	105.28117      	105.20019      	104.83231      	105.49682      	105.26444      	105.50434      	104.8728       	105.999146     	105.6567       	105.37822      	104.657524     	105.04926      	104.967545     	105.75109      	104.85827      	105.72706      	106.25631      	107.52279      	107.80879      	104.32894      	107.019295     	107.761856     	107.69657      	106.52658      	
106.12514      	106.08007      	106.810074     	106.35959      	106.337906     	106.80134      	107.072395     	106.7324       	108.33475      	106.54992      	106.85452      	106.87139      	107.518265     	108.32231      	108.352264     	107.39603      	110.85983      	106.17893      	98.8748        	96.286514      	94.10613       	93.24184       	94.15553       	95.72549       	96.68239       	97.29785       	95.051994      	96.40916       	96.59157       	97.2536        	98.48902       	97.58338       	98.6148        	98.51056       	97.53217       	99.70059       	99.06107       	100.65305      	103.2109       	102.541595     	108.27803      	107.98323      	108.19362      	111.01736      	107.88009      	109.04448      	107.34738      	107.12477      	107.19878      	107.06785      	106.695496     	108.83399      	106.62838      	105.17977      	105.79318      	106.30046      	106.16327      	106.332306     	107.00204      	106.838104     	105.8067       	107.39562      	106.07009      	106.12857      	105.532265     	106.08203      	107.232864     	107.344406     	106.17499      	106.60695      	105.87832      	104.86614      	108.24793      	105.49569      	106.28091      	106.47503      	105.33933      	107.70095      	106.20945      	105.536575     	106.0356       	105.92296      	106.19836      	105.784355     	106.26445      	106.35874      	105.657234     	106.72443      	106.89431      	107.92041      	105.5579       	104.71136      	106.32289      	108.79233      	107.73628      	108.11235      	109.47119      	105.588715     	105.626785     	106.54866      	
105.03303      	105.22791      	106.336555     	106.424866     	105.81649      	106.096985     	106.65718      	106.01047      	105.53718      	105.771996     	105.2084       	105.85728      	106.97349      	107.40105      	107.42547      	107.185974     	109.40086      	109.543976     	100.20283      	96.33306       	95.04584       	94.77021       	95.38877       	95.53523       	95.846756      	97.119675      	97.23566       	96.70721       	97.99047       	100.13722      	101.32563      	102.235176     	101.1041       	102.69814      	99.05611       	101.99553      	103.27472      	104.374054     	110.08201      	108.077354     	106.62689      	107.313446     	106.85741      	106.95901      	106.39906      	107.51287      	106.55205      	106.71413      	106.6903       	107.398674     	107.986946     	105.533295     	107.92676      	105.56777      	105.154465     	105.09505      	105.90758      	104.93126      	105.75971      	106.60677      	105.81823      	105.494865     	106.74448      	105.68389      	105.56452      	105.24671      	106.44381      	105.90596      	106.26611      	104.71304      	106.4993       	105.986015     	107.23611      	105.09665      	106.08667      	105.75224      	106.326004     	106.68041      	106.664276     	104.56385      	105.38103      	105.961334     	106.16265      	105.54238      	105.87097      	105.81194      	104.848145     	106.078705     	105.70848      	105.00626      	105.403366     	107.39053      	107.213104     	107.17762      	107.47077      	107.3418       	108.11487      	108.94169      	108.29676      	105.79012      	
105.81815      	105.12871      	106.11621      	106.45629      	106.18247      	106.48153      	105.836555     	106.00507      	106.8685       	106.08192      	106.380844     	106.11027      	106.044525     	106.66342      	105.94395      	106.19149      	107.31936      	110.54868      	104.587105     	100.9085       	100.50261      	97.70275       	97.86479       	97.12513       	97.84278       	99.592926      	98.83831       	98.176636      	99.48793       	100.057816     	100.76718      	103.33263      	104.114716     	108.62318      	107.405266     	105.89481      	107.050995     	106.92404      	107.41205      	105.126686     	106.43501      	107.26366      	106.77525      	106.51743      	106.70665      	106.26808      	106.17086      	107.81402      	106.23471      	106.71357      	108.27713      	105.672066     	108.40557      	107.53034      	105.100266     	106.53097      	105.55289      	105.571785     	106.47834      	105.77032      	105.85554      	105.57197      	105.95605      	106.063255     	105.995415     	106.064156     	106.75601      	105.66426      	107.0891       	106.21039      	106.43255      	105.954575     	106.75972      	106.90759      	106.93357      	106.582634     	105.90255      	107.168846     	105.80384      	105.3691       	106.081314     	105.73023      	106.89636      	106.33915      	106.28437      	105.10134      	106.18471      	105.4467       	105.22647      	105.87248      	106.061966     	105.66566      	105.68359      	105.586105     	107.42034      	107.77989      	108.38192      	107.74344      	108.29327      	108.29532      	
106.20415      	106.277855     	106.31107      	107.213646     	106.04987      	106.35526      	106.89708      	106.313614     	105.70639      	107.34563      	106.10974      	107.02747      	106.02345      	107.15095      	107.369484     	107.60186      	107.58365      	109.26984      	109.2774       	109.74719      	103.13303      	99.893776      	98.67566       	100.47136      	100.748665     	101.64937      	101.83501      	103.51027      	107.36321      	107.49863      	107.29049      	107.6775       	107.19311      	106.23213      	107.19324      	104.807175     	109.54563      	108.21727      	106.13562      	103.28102      	106.12417      	105.84459      	106.39914      	105.027954     	106.33065      	105.78585      	105.164185     	105.215324     	106.925995     	105.278694     	105.21561      	105.29266      	105.37109      	105.85683      	104.38592      	105.48069      	105.04368      	106.29163      	105.25206      	106.04165      	105.63523      	105.25728      	106.20478      	106.18173      	106.40484      	106.08073      	105.778656     	105.14209      	106.161575     	106.742        	105.53225      	106.03539      	106.11257      	105.45924      	105.464485     	105.7325       	105.339355     	105.93334      	106.37936      	105.86815      	106.33318      	106.109535     	106.54781      	105.73652      	105.87546      	107.18974      	106.36499      	105.49059      	106.64779      	105.56815      	105.15011      	108.3128       	106.07425      	105.46701      	105.75684      	105.03569      	104.66251      	107.58445      	108.03597      	107.517105     	
105.60255      	106.6413       	106.32527      	106.024124     	106.30414      	105.92629      	105.88165      	105.53348      	105.87754      	106.586845     	106.716576     	105.85171      	106.76513      	106.23277      	107.50171      	106.77734      	106.8248       	107.90287      	110.77936      	111.8413       	106.06754      	103.80837      	102.907166     	102.98246      	104.56084      	108.86593      	107.867615     	108.35785      	107.73946      	107.69747      	107.99241      	107.54094      	107.7079       	108.99531      	108.26453      	106.36014      	105.18552      	106.60668      	106.23234      	105.9894       	105.95039      	106.26617      	106.22432      	106.070114     	107.27689      	106.35047      	106.34526      	105.9119       	105.471825     	106.27401      	107.63275      	105.76677      	105.76574      	106.67418      	106.168465     	105.552635     	106.49491      	106.72606      	106.132904     	105.82774      	107.17649      	107.169014     	105.956        	106.929855     	106.90486      	107.54338      	106.174416     	107.0496       	105.60694      	106.19086      	107.30551      	105.78757      	105.77807      	104.742455     	107.67063      	108.00648      	107.31361      	107.58323      	107.27195      	107.658        	106.598015     	107.34016      	107.01933      	107.42763      	108.042946     	107.46727      	107.931404     	108.56374      	106.885574     	109.47818      	110.79678      	107.619125     	108.62996      	108.456535     	109.11745      	108.89147      	108.65611      	110.217125     	110.942505     	108.44875      	
106.040924     	105.960175     	104.95426      	105.30813      	106.14632      	106.00372      	106.47871      	106.78313      	106.85422      	106.47371      	105.814735     	106.28931      	106.267166     	106.337944     	106.107864     	106.13272      	106.77261      	105.98693      	107.84666      	105.93216      	108.51316      	107.724205     	107.729675     	107.812485     	107.054756     	106.84403      	107.7544       	106.535416     	107.52596      	107.0524       	106.01242      	106.69528      	106.228745     	105.48048      	107.93328      	105.6428       	105.21516      	106.023224     	107.00388      	106.36416      	106.32389      	106.5941       	107.44051      	106.48808      	106.834        	106.79144      	106.3552       	106.60782      	105.84808      	107.18577      	106.54695      	106.61113      	106.37374      	107.347565     	106.07082      	106.21161      	106.09581      	107.09383      	106.477036     	106.42243      	107.01254      	106.60941      	107.365295     	106.59189      	106.58464      	106.87199      	106.54033      	106.93438      	107.26125      	106.81473      	107.044624     	106.368164     	106.929886     	107.09431      	106.75594      	106.40085      	107.13803      	107.982        	110.66128      	106.95049      	106.16948      	106.34565      	105.97521      	106.77512      	107.63445      	106.19327      	106.56467      	107.45562      	106.37578      	105.66749      	106.331276     	106.665924     	105.13297      	106.63967      	107.28791      	107.15668      	107.192764     	106.45825      	107.86544      	108.1246       	
105.98039      	106.42134      	106.57397      	106.88825      	107.78677      	107.13257      	106.5041       	107.35639      	106.19105      	106.891754     	107.36674      	106.98379      	106.73793      	107.29505      	106.771194     	107.6251       	107.42521      	107.359985     	107.16269      	106.7668       	107.38353      	106.44757      	107.565895     	107.569435     	107.16324      	107.121056     	106.92072      	107.646614     	106.80292      	107.50989      	106.966        	106.883446     	106.67151      	106.48173      	107.03935      	106.528854     	106.91791      	106.33216      	106.674805     	106.5942       	106.59525      	106.27571      	107.265564     	106.250946     	106.2854       	106.50437      	107.0856       	106.30528      	106.17173      	107.25497      	105.80406      	106.54183      	106.52537      	105.89574      	106.17062      	105.76399      	106.5164       	106.88347      	106.15426      	106.78072      	106.948135     	106.419655     	106.150314     	106.9897       	105.94968      	105.616165     	107.38747      	106.16972      	105.22093      	106.69548      	106.616066     	106.58686      	106.86365      	107.001305     	106.07724      	107.06534      	107.042595     	107.18171      	106.509186     	107.0301       	107.87366      	107.734474     	107.466225     	106.47411      	107.35193      	107.07332      	106.11157      	108.9023       	107.754074     	105.26839      	107.85993      	107.45793      	107.07654      	106.888504     	107.951035     	109.48747      	108.5417       	108.48237      	108.14552      	105.97835      	
105.73345      	106.163704     	106.176575     	105.773415     	106.42398      	106.93477      	106.53602      	106.763596     	106.39373      	105.96033      	106.964325     	105.565216     	106.09724      	106.67331      	106.379776     	106.21636      	106.76778      	106.95089      	107.28711      	106.68337      	106.24051      	106.62628      	107.262474     	106.66539      	106.12196      	106.42073      	106.54504      	106.46351      	106.70195      	106.82227      	107.74902      	106.04002      	105.93109      	106.717285     	105.66097      	106.3782       	106.0754       	105.688614     	106.344505     	105.28086      	105.705986     	105.845505     	105.68021      	105.17071      	105.86847      	106.20644      	105.64447      	106.181435     	106.52845      	106.19292      	106.23442      	106.72027      	106.413086     	105.15061      	105.52969      	104.16123      	106.68696      	106.79646      	106.71487      	106.75589      	106.91004      	106.446594     	106.97092      	107.231735     	105.991936     	106.5889       	106.67122      	106.68035      	106.91305      	106.58533      	106.76985      	106.6654       	105.81753      	107.041084     	106.39485      	106.56206      	106.5564       	107.18766      	106.70119      	107.17604      	107.09088      	106.30968      	107.52111      	106.59786      	104.97458      	107.69767      	107.482895     	106.95399      	107.04301      	106.44231      	107.14734      	107.62168      	108.07066      	107.7175       	107.36434      	107.38829      	107.07155      	107.513306     	107.489746     	107.4547       	
106.72377      	105.57053      	105.90369      	106.95012      	106.6923       	106.763145     	106.75415      	107.14275      	105.72369      	106.73192      	106.556816     	106.11409      	106.15243      	106.074844     	106.83595      	105.671135     	107.16744      	107.27772      	106.79067      	106.51719      	106.88535      	107.15233      	106.82549      	105.86466      	106.563705     	106.87524      	106.176865     	106.44126      	105.737976     	107.25567      	106.429214     	106.23251      	106.3852       	106.63122      	106.438385     	106.7167       	106.50947      	106.30395      	106.81966      	106.06384      	106.27862      	105.80784      	105.81094      	105.991806     	105.99131      	106.06318      	106.5123       	105.62629      	106.03746      	106.544525     	105.68487      	106.47429      	106.844574     	106.3589       	106.32007      	106.69709      	106.07464      	106.4925       	107.21772      	106.63378      	106.72598      	110.00393      	107.89799      	105.02533      	106.96215      	106.41708      	106.19124      	106.52456      	106.80248      	106.997284     	106.799805     	106.131165     	105.99482      	106.54471      	106.401505     	108.462585     	106.03277      	105.87328      	107.365425     	106.41961      	106.38821      	107.889084     	106.83797      	107.1574       	107.22602      	106.87822      	106.137184     	107.25721      	106.55923      	107.2208       	106.8557       	107.325676     	107.58482      	107.40042      	107.71673      	107.70257      	106.62838      	105.82194      	106.94288      	107.59054      	
106.5306       	106.10301      	106.66633      	105.97653      	107.157814     	106.519066     	106.28353      	107.3552       	106.817795     	106.79439      	106.797516     	107.41588      	106.763985     	105.565636     	106.65284      	106.298965     	106.5781       	106.13398      	106.15623      	107.247246     	106.316124     	106.57419      	105.93959      	105.98514      	105.858444     	106.68568      	105.86953      	106.10861      	105.80122      	106.05025      	106.68191      	106.29528      	105.84161      	106.570694     	106.48254      	106.52078      	106.11485      	105.75434      	106.377754     	106.48094      	105.680084     	105.75229      	106.21443      	105.5686       	105.80362      	106.16251      	105.89704      	106.114456     	106.22248      	105.97601      	106.069916     	106.37037      	105.70845      	106.7552       	106.17027      	106.75236      	105.5793       	106.08799      	106.04798      	107.31666      	105.90034      	106.45571      	106.2608       	106.59812      	106.61527      	106.154205     	106.823685     	106.304535     	106.20759      	105.751625     	106.069244     	107.04486      	106.41358      	106.64685      	106.63279      	106.35566      	105.711334     	106.26442      	106.453735     	105.898796     	107.31281      	106.768        	106.67541      	107.00109      	106.87275      	106.544624     	107.51275      	106.37664      	106.51671      	107.41813      	106.09278      	104.989746     	106.02555      	107.1725       	107.91606      	108.262985     	107.03044      	107.400375     	107.987976     	107.28133      	
105.9201       	106.363556     	106.048225     	106.09264      	107.09389      	106.29827      	105.89589      	106.13838      	106.37478      	105.88055      	105.98298      	106.19499      	105.92791      	106.16155      	105.77989      	106.70912      	105.45748      	106.22762      	106.31814      	105.5886       	106.235596     	106.522804     	106.32016      	105.423584     	105.83891      	106.168076     	105.44302      	105.76646      	106.2119       	106.26008      	105.355515     	105.904686     	106.22994      	105.95814      	105.68885      	105.22532      	106.01857      	105.71646      	105.99292      	105.669914     	106.020546     	105.66341      	106.11441      	106.03682      	105.93841      	105.926865     	106.675934     	105.26433      	105.70141      	106.22624      	105.284485     	106.43111      	105.47226      	105.421486     	105.335        	105.24365      	105.09254      	105.71988      	107.16814      	106.81983      	106.82208      	106.09336      	106.008606     	106.473175     	106.23164      	106.03868      	106.36357      	106.55374      	107.30596      	105.85133      	106.122536     	106.95057      	106.07632      	106.55676      	106.53996      	106.389755     	106.66094      	107.038864     	106.607025     	106.55655      	106.12966      	105.91976      	106.66444      	107.11544      	106.26993      	106.34305      	106.727104     	106.27658      	106.17999      	107.03036      	106.02471      	106.146126     	107.14067      	106.07249      	107.12171      	107.530754     	107.08331      	107.406136     	106.77914      	107.259895     	
106.54202      	106.11525      	106.77327      	106.16456      	106.65916      	106.461296     	106.798744     	106.11538      	106.40879      	106.53688      	105.98303      	106.43235      	106.24648      	106.32446      	106.57293      	107.92004      	107.034615     	106.45948      	106.448006     	106.39317      	107.22427      	106.396416     	107.37828      	106.15809      	106.03643      	105.630264     	106.382095     	107.1081       	106.18775      	106.53407      	106.89906      	106.83999      	107.06842      	106.90987      	106.29165      	106.596245     	106.791855     	106.476265     	106.872185     	106.90463      	107.023605     	106.817764     	106.528206     	106.36155      	107.19192      	109.63102      	106.70583      	105.856705     	106.80421      	106.68413      	106.8021       	106.20842      	106.99829      	107.14279      	106.66207      	108.15675      	106.60638      	106.099        	106.58345      	108.69684      	106.31559      	107.171364     	107.37862      	106.95535      	111.21027      	108.403275     	105.2594       	107.155334     	107.26316      	107.28433      	106.68977      	107.17951      	107.153175     	107.59316      	107.4984       	108.372734     	110.53605      	106.855095     	104.47352      	107.48368      	107.26799      	106.587135     	107.11697      	106.65071      	106.752106     	107.57386      	107.01281      	106.98017      	106.67909      	107.2901       	106.36451      	107.25413      	106.91625      	106.726204     	108.475655     	106.74372      	107.616875     	107.75311      	106.999344     	106.75445      	
106.148415     	107.11588      	106.61539      	106.45933      	106.92625      	107.03153      	105.799515     	106.65837      	106.38378      	107.035736     	107.139404     	106.92764      	106.691666     	106.61812      	107.36099      	106.88665      	107.94134      	107.38147      	107.36606      	107.729965     	107.58206      	106.86041      	107.07384      	107.029465     	106.95823      	107.14339      	106.224106     	107.220314     	106.77944      	106.91159      	106.7402       	106.84668      	106.783554     	106.62257      	106.28794      	106.842285     	106.38475      	107.106        	106.516754     	107.2654       	106.17867      	106.1241       	106.55801      	106.407845     	107.69856      	106.20749      	107.29381      	106.4183       	106.50938      	106.9841       	106.56787      	106.87692      	107.035965     	106.82501      	106.17343      	106.915665     	106.38389      	107.179565     	107.29837      	109.58233      	106.608284     	106.832016     	106.39846      	107.13959      	106.52474      	105.90463      	106.99793      	106.66282      	106.39771      	106.55843      	107.02924      	106.37811      	107.16345      	107.619446     	107.34206      	106.8          	107.162926     	107.50003      	107.10805      	107.17691      	107.525276     	107.25902      	107.21342      	106.09196      	107.390884     	108.012184     	107.674416     	107.45326      	107.07159      	107.52429      	108.06542      	108.122894     	107.395294     	107.87173      	107.9914       	108.31915      	109.06125      	112.056366     	109.288        	103.45509      	
107.020355     	106.65187      	107.07498      	106.26037      	106.80971      	107.13525      	107.00571      	107.16856      	107.3027       	106.55021      	106.03496      	106.43385      	106.845116     	106.59736      	106.6383       	106.70556      	107.12556      	107.12835      	106.731995     	106.22677      	106.72053      	107.20583      	107.19413      	107.48289      	106.54951      	106.24258      	107.06681      	106.462425     	106.58465      	107.04038      	106.47799      	106.560455     	106.93618      	106.68812      	106.50799      	107.514084     	106.59743      	106.71047      	107.262405     	106.549835     	107.628525     	106.72282      	106.54697      	107.26874      	107.78057      	107.098694     	106.477455     	106.42482      	107.16734      	107.39003      	106.690155     	106.834366     	106.68721      	106.517204     	106.77658      	106.2331       	107.228676     	106.30233      	107.29758      	107.307304     	107.300575     	107.26017      	107.43751      	107.146164     	107.276        	107.10408      	107.02063      	107.28505      	107.30545      	106.93326      	107.89747      	107.597466     	107.5485       	107.517296     	107.36719      	107.15434      	107.88467      	105.874435     	109.04299      	107.74345      	107.71113      	108.925385     	107.942444     	108.13788      	108.62306      	108.65536      	108.60115      	108.31245      	108.35238      	108.19006      	108.07246      	108.940674     	110.577        	108.88996      	104.8356       	104.26379      	100.49169      	97.79316       	97.121796      	96.012276      	
106.66219      	106.559586     	106.8155       	107.16802      	107.1466       	107.2054       	106.67166      	106.3183       	106.86747      	106.739334     	107.528984     	106.8074       	107.0349       	106.47068      	106.92732      	107.00147      	106.69738      	106.95483      	106.61008      	107.40179      	107.091        	107.15231      	106.61293      	106.75989      	106.78458      	106.4037       	106.39461      	106.48795      	106.55592      	106.96051      	106.74654      	106.45532      	106.86537      	106.38746      	106.57041      	106.52111      	106.713104     	106.72893      	106.68369      	106.81387      	106.87558      	107.171936     	106.660866     	106.73737      	106.87902      	106.111374     	106.951614     	106.450615     	106.53942      	106.66158      	107.083755     	106.85886      	107.218155     	107.01755      	106.15788      	106.4227       	106.95607      	105.9569       	106.970604     	106.66682      	107.17075      	107.298355     	107.20862      	106.6974       	107.02095      	107.487816     	106.59189      	106.77941      	106.55604      	106.56904      	107.00492      	107.568054     	107.347626     	107.1756       	106.88551      	108.09241      	107.6807       	107.164825     	108.01108      	108.06573      	107.33945      	106.92345      	107.58309      	107.6635       	107.660866     	107.654526     	108.79383      	108.84116      	109.932884     	107.03837      	105.89814      	100.66183      	96.83752       	94.7185        	93.92678       	94.57998       	93.27814       	92.79291       	93.29386       	93.83806       	
107.40558      	106.71993      	107.23749      	107.1402       	106.41683      	106.98786      	107.65529      	106.369736     	107.038315     	107.469124     	106.48483      	107.29061      	107.66981      	106.84082      	107.03741      	106.75821      	106.61851      	106.76294      	106.74073      	106.65196      	107.672066     	106.89643      	107.0109       	106.94637      	106.72784      	106.74889      	106.38462      	106.96215      	106.54207      	106.82353      	106.63928      	106.644844     	107.23932      	106.882034     	106.38896      	106.983185     	106.89765      	106.950134     	107.42555      	107.088264     	106.574135     	106.551445     	106.82143      	107.015175     	106.63846      	105.964966     	106.9803       	106.98036      	107.556625     	106.73226      	106.483116     	107.16676      	106.40337      	107.50924      	106.69455      	106.56782      	106.994675     	106.242035     	105.58918      	107.31566      	106.9642       	106.74715      	107.385124     	107.02276      	107.00206      	107.76551      	107.36976      	106.709114     	107.765915     	106.87248      	107.47032      	106.8069       	106.873375     	107.24309      	106.585915     	107.060036     	107.282585     	107.708824     	107.15288      	107.63282      	107.09083      	107.69356      	106.48691      	107.39628      	107.38353      	106.90533      	109.03212      	107.03229      	99.64913       	94.326256      	93.14063       	93.725945      	93.184456      	92.33373       	92.33625       	92.23528       	93.160645      	93.54798       	93.66065       	94.74707       	
106.56003      	106.101685     	105.88291      	106.1222       	105.60932      	106.54932      	106.06199      	105.899574     	106.232475     	106.160286     	105.82867      	106.57067      	106.06803      	105.99739      	106.16042      	105.6859       	106.03755      	105.98088      	106.09537      	105.74937      	106.321785     	106.318115     	105.47255      	107.09316      	105.97289      	106.49108      	105.74501      	106.42068      	105.60301      	105.19547      	106.41494      	105.56277      	106.01338      	105.787224     	105.66303      	105.70512      	106.25534      	105.94779      	106.275345     	104.74663      	105.49325      	105.28741      	105.63954      	104.80093      	105.957146     	105.80282      	106.41562      	105.97735      	106.39049      	106.35017      	105.9962       	105.83669      	106.56998      	107.011        	109.05183      	106.27634      	106.278275     	105.98799      	105.74576      	106.01003      	106.105125     	105.25792      	106.693504     	106.974106     	106.38536      	106.63573      	106.333115     	106.74648      	106.49845      	106.53184      	106.75442      	106.12011      	107.04081      	106.46015      	106.33052      	106.45011      	106.630005     	106.55538      	106.9993       	107.13974      	106.449234     	106.868576     	106.25043      	105.53463      	106.739265     	111.917725     	105.14012      	98.83893       	95.23292       	92.10293       	91.58074       	92.6608        	92.68411       	93.2443        	93.63865       	94.195564      	93.86147       	94.25575       	94.65077       	94.078636      	
106.61089      	106.282616     	106.572395     	106.263885     	106.6629       	106.51271      	105.90814      	106.61612      	105.95339      	105.91484      	106.31212      	106.016525     	106.6112       	106.2497       	106.41749      	106.20013      	106.75732      	107.10459      	106.76477      	107.00068      	106.21714      	106.87396      	106.78054      	107.708725     	106.31817      	106.57596      	106.071106     	105.49841      	106.64138      	106.05476      	106.06476      	106.90662      	106.56111      	106.310875     	106.24802      	106.97222      	106.66955      	106.05713      	106.466896     	105.92433      	105.90463      	106.263885     	106.322624     	106.627686     	105.60182      	106.14051      	105.79514      	105.98949      	106.478386     	106.913605     	106.76413      	106.24072      	107.12924      	106.91642      	105.44824      	106.23956      	106.74762      	105.963425     	106.04514      	105.9026       	106.62126      	106.73915      	106.29049      	106.49961      	106.679634     	106.84569      	106.54948      	106.70279      	105.98515      	106.632065     	106.82371      	106.00818      	106.61867      	106.83801      	106.806946     	106.40509      	106.798676     	106.79606      	106.64314      	107.04878      	106.773575     	107.25715      	107.22043      	108.18676      	106.29469      	109.23111      	100.07553      	94.99033       	92.80644       	91.796074      	92.185875      	93.4606        	95.116974      	93.14592       	92.050606      	93.879875      	94.22826       	95.35919       	96.583084      	96.15953       	
106.40402      	107.286644     	106.97055      	106.36055      	107.05388      	106.66293      	106.5085       	107.26211      	106.0183       	105.940315     	106.311584     	106.29381      	106.872795     	106.22645      	106.521225     	106.06074      	106.29267      	106.42569      	106.762764     	107.27802      	106.520744     	107.048584     	106.84931      	106.94563      	106.6834       	106.65538      	106.35376      	106.39117      	106.43815      	106.31822      	106.90342      	106.827515     	107.284966     	107.12264      	108.96304      	105.08663      	106.60781      	106.54507      	106.489006     	105.80504      	106.3963       	107.4737       	106.939514     	106.11486      	106.73952      	106.36367      	106.38971      	106.28409      	106.508835     	107.0937       	106.12991      	106.34603      	105.90586      	106.63601      	106.37419      	105.88999      	106.02543      	105.82792      	106.79887      	105.69709      	106.815544     	106.164444     	106.018166     	105.61407      	107.28685      	107.05186      	107.35529      	107.17478      	107.59275      	106.668015     	107.46874      	106.98784      	106.88245      	106.744995     	107.785904     	107.03713      	107.09618      	107.27655      	107.58008      	107.16641      	107.23845      	108.354866     	107.93438      	107.391335     	109.4561       	108.76833      	98.92818       	96.32498       	94.73348       	92.2004        	92.40389       	93.04329       	94.25275       	94.96212       	93.576805      	95.59272       	94.80994       	95.58657       	96.76058       	96.30407       	
106.00564      	106.216225     	106.42337      	105.771515     	105.92433      	106.04356      	106.537025     	106.63002      	106.47784      	106.41862      	106.740585     	106.01433      	106.50183      	105.42868      	106.87877      	106.6406       	105.72831      	105.86703      	106.336136     	105.75695      	106.118126     	106.226746     	106.286125     	105.78488      	106.044754     	106.615746     	106.634445     	106.79857      	106.18398      	105.87243      	107.15667      	106.23531      	109.09748      	109.81253      	106.8119       	103.58186      	103.503235     	106.137764     	107.17168      	105.43848      	105.33205      	106.100716     	106.67817      	106.647575     	106.19867      	106.62906      	106.80465      	107.64569      	107.05192      	106.966644     	107.252625     	106.74504      	106.78211      	107.50608      	106.80022      	106.98553      	107.06389      	107.37104      	106.430855     	106.34715      	106.86971      	107.63324      	106.776        	107.07005      	107.06498      	107.426155     	106.99615      	106.8488       	107.34927      	106.78705      	107.515526     	108.03481      	107.43105      	107.47206      	107.01514      	107.087616     	106.26376      	106.64265      	106.88963      	106.49164      	106.46443      	107.34043      	107.173416     	107.252235     	106.657166     	110.21309      	101.11114      	96.91872       	96.75549       	94.3712        	92.44954       	93.733864      	93.688675      	95.36206       	94.85726       	94.88568       	96.032845      	95.88134       	96.828636      	97.078476      	
106.38317      	106.71886      	106.71225      	106.92484      	106.56941      	106.57314      	105.67724      	106.175026     	106.81654      	106.32626      	106.04496      	106.59996      	106.639145     	106.37654      	106.38431      	106.55527      	106.47994      	106.21482      	107.00879      	106.81631      	106.43213      	106.96916      	106.190605     	106.65683      	106.12167      	106.08812      	107.87511      	106.182045     	106.1441       	107.032364     	106.01451      	106.30822      	106.77709      	106.20292      	106.56087      	106.82861      	106.67391      	106.63682      	106.519745     	105.901146     	106.58188      	106.13742      	106.29105      	105.97432      	106.36244      	106.0007       	106.74076      	106.44837      	106.41501      	106.01616      	106.28648      	106.008675     	106.45449      	105.97581      	106.01184      	106.20826      	105.6477       	106.48679      	106.190765     	105.93796      	106.2797       	106.12781      	106.5312       	106.378975     	106.54167      	106.64816      	105.8971       	106.24694      	106.42924      	105.88425      	106.17717      	105.5565       	105.86291      	105.82304      	106.487854     	105.79259      	106.55434      	107.098335     	105.54556      	105.95673      	106.87747      	106.4132       	106.53375      	106.386475     	106.29374      	111.025955     	102.506744     	98.75747       	96.815384      	94.69117       	92.85368       	93.94842       	94.41339       	97.67012       	96.5383        	96.944565      	97.48514       	95.64375       	95.98592       	96.2947        	
106.44855      	106.65454      	105.94579      	106.163284     	106.265        	106.07177      	106.40945      	107.17425      	106.473434     	106.193504     	107.5188       	106.59183      	106.391205     	106.97703      	105.89136      	107.40622      	106.05782      	106.61499      	107.03504      	107.23827      	106.203705     	106.1399       	106.31973      	106.366936     	106.60698      	106.18132      	107.34441      	106.55339      	106.04281      	106.0563       	106.301186     	105.91408      	105.97629      	106.34792      	106.239334     	106.61508      	107.02155      	106.053764     	106.165375     	106.89334      	106.17203      	106.648224     	106.05469      	106.66803      	106.13263      	106.842964     	106.11349      	106.8847       	106.98495      	105.561325     	106.60511      	105.93997      	106.579475     	107.23754      	106.48479      	107.52162      	110.180626     	109.85199      	109.843796     	106.748184     	107.28726      	107.438896     	107.464676     	106.99951      	107.24774      	106.81723      	107.007034     	107.29525      	106.44327      	106.54783      	107.26016      	106.74039      	106.29921      	106.672195     	107.59729      	107.11152      	107.19819      	107.06806      	107.06675      	107.0327       	107.56485      	107.22962      	107.4552       	107.77824      	108.029305     	110.810356     	105.59514      	99.66433       	97.496414      	95.19661       	93.92293       	93.30021       	94.43281       	95.431496      	95.90617       	95.71323       	96.42275       	96.385544      	97.08295       	96.53593       	
107.24048      	106.61481      	106.83095      	106.73795      	107.17463      	107.06263      	107.039635     	107.21374      	107.30326      	107.222374     	106.7805       	107.518616     	106.56891      	107.23805      	106.47481      	106.87583      	107.0403       	106.67596      	106.991585     	107.37807      	106.90789      	107.14772      	106.99128      	106.79092      	107.13687      	107.28517      	106.96666      	108.28432      	107.29652      	106.499565     	106.88666      	107.29357      	107.01102      	107.26454      	106.33977      	106.814835     	106.28702      	107.551674     	106.840294     	108.177765     	108.45708      	107.73825      	106.640045     	106.72208      	107.069336     	107.18646      	106.93819      	107.2713       	107.041405     	107.21105      	107.3915       	107.4843       	107.32901      	107.56789      	108.46016      	108.672104     	108.77666      	103.39773      	97.53405       	95.17638       	95.43306       	97.85272       	101.03833      	106.43606      	106.50378      	107.14319      	106.493744     	106.78174      	107.287796     	106.929405     	107.12435      	107.32573      	106.753        	107.25417      	107.45843      	107.136185     	106.79772      	106.538155     	106.61964      	106.80279      	106.91306      	107.43694      	107.11106      	108.16486      	108.30497      	109.24743      	109.8634       	100.59981      	97.23262       	94.96272       	93.66911       	92.69012       	94.75078       	95.450096      	95.9514        	95.16827       	95.75468       	95.81483       	96.1952        	96.120056      	
106.2839       	106.191574     	107.45892      	106.62839      	106.8461       	107.27947      	106.34146      	107.54445      	106.95954      	106.986015     	106.924995     	107.79404      	106.613884     	107.17888      	106.63352      	106.32615      	106.65104      	106.63985      	106.52167      	106.26828      	106.35183      	107.14584      	106.7444       	106.90959      	106.641975     	106.881485     	105.64783      	107.366516     	106.57049      	107.13245      	106.70527      	106.02916      	107.38919      	106.45301      	107.00337      	106.96849      	107.2639       	107.14213      	106.31281      	106.83396      	106.62417      	106.93056      	106.16563      	106.99157      	107.026306     	106.70987      	106.76326      	107.607086     	107.805466     	106.92579      	109.95568      	107.26946      	109.13332      	104.57231      	98.310265      	95.02663       	94.91273       	94.43634       	92.15034       	91.264915      	90.97208       	92.36095       	93.03586       	101.51186      	106.820595     	106.982254     	106.82291      	106.52038      	107.14922      	107.02046      	106.67101      	106.93911      	106.25705      	107.07125      	107.2196       	107.26367      	107.24872      	107.051544     	107.14356      	107.421814     	107.345634     	107.538635     	107.2037       	107.4452       	108.124        	107.64323      	111.94087      	102.56035      	98.37736       	97.21343       	95.27427       	93.65589       	94.26959       	94.84461       	95.340034      	94.81592       	96.5609        	96.87712       	96.9183        	96.335045      	
106.42355      	106.21982      	106.32481      	105.41024      	106.95928      	106.75002      	105.79444      	105.22821      	106.23553      	106.47056      	105.94796      	107.136345     	105.350845     	104.86764      	107.11706      	107.3319       	106.79431      	106.74178      	106.84733      	106.26524      	107.04777      	106.5015       	107.412865     	106.662865     	106.7558       	106.0697       	106.14957      	106.968636     	105.95691      	106.48895      	105.96594      	107.01946      	105.960945     	106.64296      	106.4512       	106.622284     	106.23909      	105.717865     	105.917274     	106.10029      	107.19205      	106.230804     	105.98303      	106.130005     	106.28223      	106.7921       	105.60045      	109.04406      	102.82889      	99.480415      	96.00033       	95.72728       	93.83251       	94.03913       	92.71649       	91.93166       	91.62295       	91.83737       	92.4569        	91.229256      	91.36911       	93.188385      	94.30039       	96.64914       	107.32964      	107.748375     	107.06641      	106.79182      	106.85821      	106.98616      	106.69415      	106.46257      	106.630554     	106.94293      	106.3863       	106.90215      	106.69607      	105.9101       	106.41976      	106.234856     	108.4168       	106.881836     	106.855125     	107.48218      	107.55623      	107.82098      	111.03157      	107.10293      	100.54896      	98.54839       	95.38189       	94.552956      	95.42278       	95.37791       	96.4284        	96.62426       	97.440895      	97.96248       	97.81053       	97.78927       	
106.147606     	106.53604      	106.416405     	105.716835     	105.77414      	106.74256      	106.26798      	106.51388      	106.84377      	106.23959      	106.79224      	106.41746      	106.26391      	106.446495     	106.333336     	106.739716     	106.29351      	107.02836      	105.818855     	105.808464     	107.25715      	106.61274      	107.13575      	106.476974     	107.255035     	106.58284      	106.722496     	106.61858      	106.33228      	106.59932      	106.68666      	107.009254     	106.44643      	107.07425      	106.54001      	106.424194     	106.38721      	106.35906      	107.18179      	106.77657      	106.13003      	105.95242      	109.546425     	104.96617      	100.72409      	99.52897       	96.463066      	94.71101       	93.7642        	92.32907       	92.45721       	91.86901       	92.59006       	92.91473       	92.75688       	93.53888       	94.35791       	93.28462       	93.29058       	93.60585       	93.080605      	93.020584      	94.68447       	97.931816      	105.03634      	106.97186      	107.099434     	106.60729      	106.90996      	106.82427      	106.5217       	107.87129      	107.40713      	107.92396      	107.548004     	107.00033      	106.35786      	107.51154      	106.718636     	105.793434     	106.72261      	106.93001      	106.87967      	108.00871      	107.10761      	107.763824     	111.7826       	105.8651       	99.427795      	97.38752       	95.84562       	94.751114      	94.3719        	94.88838       	95.812836      	95.98458       	96.69004       	96.75083       	96.186386      	96.37966       	
107.30254      	105.12285      	106.808014     	106.25528      	106.80703      	106.66254      	106.818855     	106.651985     	107.07315      	106.68125      	106.84741      	106.01718      	105.96049      	106.74708      	106.821106     	106.621864     	106.843506     	106.7783       	105.79797      	107.13384      	107.06793      	106.828606     	106.72043      	106.879074     	106.65377      	107.044106     	106.68788      	106.77604      	106.913025     	105.83108      	106.73243      	106.40181      	106.52196      	105.65072      	107.11441      	106.25954      	106.28612      	106.78082      	108.39322      	107.25861      	102.085846     	99.42982       	95.82492       	94.726234      	93.91517       	92.65022       	91.93328       	92.53642       	91.98          	92.545235      	92.72558       	93.241104      	93.11357       	93.81789       	93.35855       	93.61123       	93.879944      	93.21925       	93.43221       	93.464066      	92.04564       	94.175224      	94.050186      	99.08208       	103.06265      	107.88022      	107.72825      	107.32067      	107.137276     	107.016846     	107.8685       	107.02631      	107.462265     	108.44047      	107.45413      	107.72612      	108.33354      	107.75111      	107.250534     	107.95962      	108.37911      	108.3323       	108.6737       	108.67855      	109.72479      	110.20696      	112.06951      	107.90365      	101.36411      	98.53443       	97.42232       	95.66241       	94.775444      	95.372284      	96.32407       	96.361         	97.13208       	97.012566      	97.633064      	97.64189       	
106.31303      	105.215324     	107.2412       	107.164375     	106.80057      	106.816124     	106.7953       	107.10485      	107.312454     	106.84497      	106.94753      	106.9401       	106.69817      	106.82603      	107.22767      	106.000565     	106.98445      	106.759384     	106.81108      	106.657166     	107.23851      	106.74247      	107.0258       	106.65559      	106.89928      	106.822914     	107.36788      	106.79611      	106.686104     	106.41767      	106.23983      	107.299995     	105.303276     	106.15914      	112.142044     	103.99936      	97.407326      	96.49896       	96.12476       	94.23693       	92.703476      	92.27195       	92.39593       	92.69972       	92.32687       	92.66174       	93.114174      	93.08301       	93.34492       	93.801384      	93.69392       	93.55793       	94.94664       	94.349815      	94.486         	94.539276      	94.34373       	94.26256       	94.55604       	94.016624      	93.462654      	94.14598       	97.481636      	97.306         	102.84057      	107.11415      	107.24693      	106.79988      	106.92063      	107.12272      	107.42709      	107.71105      	107.65252      	107.32849      	107.56468      	107.3351       	107.36418      	107.79749      	107.44578      	107.243256     	107.44284      	108.04445      	107.767784     	107.844444     	107.871346     	108.756096     	108.7209       	112.51991      	103.79621      	98.98506       	96.815926      	95.78585       	94.331696      	95.54711       	96.06872       	96.79779       	96.705635      	98.71932       	98.571335      	97.118706      	
106.073006     	106.99496      	107.01591      	107.10663      	106.43969      	106.41626      	106.395744     	107.29514      	106.80114      	106.394356     	106.22646      	106.66368      	106.224976     	106.9513       	106.52023      	106.16786      	106.3518       	106.151505     	106.21452      	106.52359      	106.18146      	106.5061       	106.578415     	106.03087      	107.24704      	105.61102      	107.07256      	106.18156      	106.161575     	106.962204     	104.6327       	104.029274     	102.06437      	96.53504       	94.90556       	94.413414      	92.20712       	91.39568       	91.85384       	91.69          	91.708755      	92.024345      	92.25007       	92.21388       	92.673454      	92.76182       	92.873055      	93.11107       	92.945305      	93.593285      	93.94509       	93.784         	93.803185      	94.49723       	94.11562       	93.6727        	94.248245      	93.68372       	93.07435       	93.915955      	93.08511       	92.75798       	92.64086       	93.488         	99.58038       	106.89504      	107.02799      	106.87065      	106.76733      	106.34646      	106.83314      	108.10896      	106.966125     	106.8116       	106.995995     	107.42754      	106.80742      	107.65761      	107.190094     	106.57221      	106.86533      	107.03942      	107.6371       	107.70587      	107.786964     	109.35686      	108.24043      	112.37153      	105.50082      	99.30311       	96.42648       	94.805046      	93.43529       	93.77443       	93.95716       	94.62298       	95.04517       	95.600075      	95.7624        	94.96637       	
104.25979      	107.00084      	106.78936      	106.0247       	106.60146      	105.968475     	106.22022      	106.193        	106.00495      	106.08836      	106.1439       	105.17013      	106.810875     	105.40547      	107.186966     	106.36175      	106.45098      	106.44105      	106.61667      	106.244995     	106.66303      	106.502815     	106.52551      	107.49384      	106.58619      	106.95879      	106.454895     	110.09712      	104.92011      	97.414505      	94.02208       	92.95612       	91.96406       	92.38672       	91.36688       	91.83371       	91.63442       	92.72066       	92.77513       	92.722946      	92.795105      	92.722946      	93.54136       	92.78367       	93.44484       	93.54335       	94.01492       	93.4766        	94.42559       	94.323006      	94.70439       	94.541084      	94.92887       	94.3793        	95.076385      	94.84876       	94.82182       	94.71252       	94.67847       	94.12752       	94.433205      	94.2758        	92.15836       	95.16481       	98.380936      	106.561646     	105.409966     	106.28789      	106.27738      	106.0271       	105.70614      	106.19814      	106.114075     	105.83654      	106.42042      	106.11015      	107.13604      	106.29221      	105.93169      	106.54175      	107.21642      	105.710526     	107.13645      	108.0455       	107.05974      	107.894646     	107.01872      	109.231674     	107.87021      	101.44955      	98.29953       	97.955666      	94.12729       	93.94687       	95.40347       	95.10599       	95.75585       	96.0047        	95.90756       	94.63768       	
105.88096      	105.9597       	107.02729      	106.36592      	106.31179      	106.06008      	106.410095     	106.13681      	106.90634      	106.2906       	106.853325     	106.70005      	106.146095     	107.00042      	105.48861      	105.84923      	106.13182      	106.458405     	105.95535      	106.04793      	105.55548      	105.76145      	106.85849      	106.04122      	104.663635     	108.63056      	109.29441      	101.979065     	96.54474       	91.414566      	91.32518       	92.057945      	91.61676       	92.617256      	93.18097       	92.97693       	93.27691       	93.48406       	93.1549        	93.94108       	93.7555        	93.99926       	94.13965       	94.388306      	94.422935      	94.33854       	94.94138       	94.60091       	95.17271       	95.24392       	95.62449       	94.82153       	95.37077       	95.827034      	95.785904      	95.61666       	95.59165       	95.27626       	95.89123       	96.183395      	94.58834       	93.79352       	94.160225      	94.69478       	97.005165      	102.93553      	107.0998       	106.97451      	106.53925      	106.0234       	106.336914     	106.48514      	107.59167      	107.51982      	107.41624      	107.70517      	107.516304     	106.72761      	106.90516      	107.561844     	106.929634     	107.26377      	107.56976      	107.74319      	107.57085      	108.324234     	109.21064      	110.55974      	110.02344      	101.63389      	98.90142       	97.37389       	95.3217        	93.96588       	95.37851       	95.43712       	95.96928       	97.56435       	95.91295       	95.11052       	
106.22512      	106.41694      	107.061485     	106.511        	106.26674      	106.55357      	106.20689      	106.96783      	107.09006      	107.39025      	106.06992      	106.4524       	105.572464     	107.44817      	106.174515     	106.93951      	106.249596     	106.79653      	106.88973      	106.617836     	106.448845     	107.05898      	107.21311      	107.13012      	107.07693      	111.03645      	100.13457      	96.42566       	92.83496       	90.811485      	91.43359       	91.90014       	92.95928       	92.649025      	93.25753       	92.84855       	93.55369       	93.74696       	93.91427       	93.77524       	94.08039       	93.71436       	94.177216      	94.77641       	94.85894       	94.64828       	94.52656       	95.09144       	95.00466       	94.87432       	94.82777       	95.919075      	95.61665       	95.302986      	95.53722       	95.26669       	95.210205      	95.36307       	94.13833       	94.279106      	93.802765      	92.53301       	93.21979       	92.67295       	94.10793       	101.71118      	106.663025     	106.2341       	106.7765       	106.14375      	106.639275     	106.11806      	106.56265      	106.010056     	106.76603      	106.51174      	106.59702      	106.9461       	106.57149      	106.866684     	106.68265      	107.11531      	107.03456      	107.31901      	107.391594     	107.637924     	107.11282      	106.6367       	112.77208      	102.929016     	99.24948       	96.392006      	94.566696      	93.05853       	94.530495      	94.85492       	96.48017       	97.52055       	97.17835       	96.3075        	
105.73023      	107.23559      	106.927216     	106.48374      	105.99272      	107.07333      	106.32433      	106.27209      	106.432205     	106.535934     	106.32818      	106.03955      	106.39348      	106.47869      	106.419        	106.39969      	106.843346     	105.51108      	106.23712      	106.463425     	105.159645     	107.46714      	107.17738      	106.2172       	109.0635       	107.351845     	100.44979      	97.05498       	94.857765      	92.33272       	92.292755      	92.84455       	93.07622       	93.60269       	93.64691       	94.41112       	94.3874        	94.20709       	94.60711       	94.577354      	94.71708       	94.75667       	94.551834      	94.75786       	94.68191       	95.13839       	94.96109       	95.305176      	95.03261       	95.67951       	95.42483       	96.657814      	95.710236      	95.88566       	95.76452       	94.9184        	95.213905      	95.101845      	94.41078       	95.27208       	93.48557       	92.78026       	92.75974       	92.73533       	93.46894       	100.60979      	106.792564     	106.57369      	106.40971      	107.53924      	106.8508       	107.30411      	107.34281      	105.99857      	106.635345     	107.27099      	106.3984       	106.61786      	106.64845      	107.06239      	106.335785     	106.79004      	106.48217      	107.499664     	107.52987      	106.76038      	107.13341      	107.7471       	110.7404       	105.26632      	99.07661       	96.438866      	97.11556       	94.49375       	94.18215       	94.81255       	95.23914       	95.98822       	96.07039       	95.993256      	
106.434166     	106.740715     	106.30203      	106.775154     	106.10019      	106.316376     	106.726105     	106.54399      	106.7192       	106.333176     	106.32762      	106.52214      	106.40395      	106.09664      	106.891304     	106.56122      	106.19458      	105.77047      	106.41595      	105.90954      	106.41644      	106.56901      	106.50411      	107.6513       	109.68296      	105.612724     	98.88944       	96.351616      	94.32573       	93.90644       	91.94939       	93.551704      	93.011795      	94.3146        	94.234665      	94.73864       	94.9196        	95.04914       	94.80128       	95.394875      	94.586296      	95.930885      	95.034355      	95.580635      	95.184204      	95.190506      	95.45398       	95.18581       	95.52634       	95.19175       	95.64835       	95.33003       	95.22855       	95.35446       	95.30027       	94.513695      	95.61964       	95.14751       	94.54433       	94.97427       	94.183945      	93.8847        	92.19431       	92.54452       	92.41309       	95.21157       	105.62019      	107.19032      	106.88891      	107.32431      	105.80826      	106.45775      	106.95857      	106.979034     	106.579605     	106.8383       	107.50926      	106.36069      	106.51791      	106.85459      	106.57593      	107.13934      	106.9369       	106.486015     	107.28639      	107.03699      	106.52964      	107.93871      	108.68672      	109.63736      	100.295265     	97.35591       	95.318726      	93.40713       	94.32421       	95.51013       	96.732285      	97.576515      	97.873695      	96.92006       	
105.60322      	106.61139      	106.68497      	106.466255     	106.970024     	105.491066     	105.83305      	106.57895      	105.916885     	106.237335     	106.18219      	105.78635      	105.764694     	106.46026      	106.507866     	107.2256       	104.991615     	106.30088      	107.81521      	105.234634     	106.50041      	107.27941      	107.099236     	106.74157      	107.572205     	109.597855     	100.57194      	98.43596       	95.51439       	93.615234      	92.64512       	93.42083       	93.84085       	94.95841       	95.227165      	95.03708       	95.5192        	95.57728       	94.48091       	95.342316      	95.47345       	95.48746       	95.51014       	95.520836      	95.20428       	95.44546       	95.21783       	95.14772       	95.40552       	95.93987       	95.58837       	96.12438       	96.28014       	95.492455      	97.65064       	98.60619       	95.60739       	98.50677       	97.12975       	97.58719       	95.69268       	95.71895       	93.08593       	92.88838       	93.998085      	96.28598       	103.589745     	107.53571      	107.25953      	107.377846     	107.225914     	107.86947      	107.77662      	107.62641      	107.4353       	107.42499      	107.805504     	108.142395     	107.50623      	108.07628      	108.18255      	107.601166     	107.50012      	108.609665     	108.65586      	109.018005     	109.24184      	108.76545      	110.2351       	109.838295     	100.87661      	97.0525        	97.397446      	96.03344       	94.611435      	95.37261       	98.61672       	95.75296       	95.69633       	96.2267        	
106.551544     	106.35663      	107.01511      	107.024        	107.38196      	106.920746     	106.19267      	106.442444     	106.96032      	107.164665     	107.24683      	106.8742       	107.078476     	106.524414     	106.92204      	106.693924     	107.50892      	106.65371      	106.715385     	107.303764     	107.43496      	107.59656      	107.463036     	108.05439      	108.67731      	112.18774      	102.85804      	99.09935       	96.67133       	94.96721       	93.00197       	94.17237       	94.05901       	94.76244       	94.91929       	95.03578       	95.29143       	94.76837       	95.02904       	95.38379       	95.66484       	95.43746       	96.06695       	95.375656      	95.11924       	95.41638       	96.183105      	94.756065      	96.341286      	94.96958       	96.37008       	95.34107       	95.146706      	96.05769       	95.32736       	95.87612       	95.35332       	94.437706      	93.05137       	96.52245       	94.57219       	93.884026      	93.016464      	93.990295      	92.85207       	94.4702        	101.06309      	106.568375     	107.43532      	106.864685     	107.74624      	106.43286      	107.13662      	106.820305     	107.16777      	107.02092      	107.996735     	107.49586      	107.38197      	107.96299      	107.67981      	107.468765     	107.698235     	107.85493      	107.89717      	108.30286      	109.09605      	108.97004      	109.76285      	111.13031      	103.259636     	100.362526     	97.560234      	95.83061       	93.5766        	93.80135       	95.56144       	98.007904      	98.880264      	98.28651       	
107.06583      	107.99712      	106.59198      	107.04641      	106.17716      	106.017075     	106.75294      	106.37743      	106.624565     	105.91984      	106.828384     	106.465256     	106.31622      	106.79178      	105.973206     	106.99299      	106.59672      	106.487144     	106.91806      	105.93194      	105.77817      	107.51214      	106.23485      	109.06801      	109.213974     	111.14685      	105.59695      	100.00204      	96.777596      	94.329155      	93.72436       	93.305         	95.0848        	94.483795      	95.44857       	95.52347       	95.96397       	95.41252       	94.59133       	96.255905      	95.43674       	95.96368       	96.46187       	95.70443       	96.06083       	95.471634      	96.041885      	95.58023       	95.69177       	95.885445      	96.05001       	95.598656      	95.62029       	95.504684      	97.140236      	95.32683       	95.01579       	95.34703       	98.1822        	95.16348       	94.198715      	94.83687       	93.51512       	93.667336      	94.28713       	94.75887       	100.52926      	106.53124      	106.8473       	106.78301      	107.07837      	106.66782      	107.228485     	106.537285     	106.40973      	107.572334     	106.80603      	106.723885     	106.80612      	106.75824      	106.88019      	106.89398      	106.55602      	108.19487      	106.8494       	108.96683      	107.122375     	107.88653      	107.63723      	111.45905      	104.68861      	99.002205      	95.69883       	97.43926       	95.27095       	95.04498       	95.20215       	97.35653       	96.35946       	94.42964       	
94.02563       	96.14646       	99.62114       	105.39828      	106.65409      	106.71249      	106.75601      	106.41674      	107.2473       	107.09889      	106.59748      	106.19381      	106.68136      	106.763145     	106.73072      	106.326164     	107.31434      	106.516785     	107.06808      	107.439995     	106.86344      	105.797386     	107.45073      	108.351006     	108.48749      	110.76862      	109.7376       	99.903885      	97.013405      	94.18769       	93.46965       	92.82264       	94.28467       	94.46682       	94.26756       	98.98222       	96.905846      	94.678314      	93.72828       	95.97233       	96.03683       	95.69325       	96.40143       	96.43292       	95.54122       	95.508575      	96.21694       	95.68469       	96.29644       	96.22331       	96.13564       	96.27634       	96.5146        	96.61685       	96.2862        	97.33351       	97.16407       	99.66979       	96.07405       	92.467316      	95.03148       	94.85299       	93.734375      	92.51312       	95.00554       	93.896194      	100.67511      	106.334465     	107.35654      	106.727875     	105.98499      	107.51191      	106.293594     	106.54771      	107.18934      	106.483635     	106.719        	106.579414     	107.00933      	106.86076      	106.5557       	107.367195     	106.38817      	107.31         	107.39251      	107.30872      	107.95307      	107.486145     	107.326614     	110.05578      	108.844734     	100.87352      	97.97829       	98.3547        	95.390015      	94.574326      	95.63243       	96.16722       	96.45956       	97.52401       	
90.900734      	92.79798       	94.30837       	99.101105      	106.62476      	107.20632      	107.72766      	107.515854     	107.40015      	107.75756      	107.65345      	107.38688      	107.68857      	107.53661      	107.81779      	108.23506      	107.32802      	107.82862      	108.37899      	107.68838      	108.03686      	107.81407      	108.82042      	108.65996      	109.209175     	110.08         	111.575615     	102.895        	98.75397       	97.49284       	96.79842       	95.02779       	94.387505      	95.42077       	96.47201       	96.46744       	96.44868       	96.18941       	96.39045       	96.91135       	96.11152       	96.273315      	96.20051       	96.27519       	96.0048        	96.162796      	96.6784        	96.67422       	96.36473       	96.219574      	96.49553       	96.6446        	96.82797       	96.9707        	96.69828       	97.06867       	96.28984       	95.946884      	96.412964      	95.19089       	95.543686      	95.53343       	95.64562       	93.036835      	93.5752        	94.64798       	99.65538       	105.340805     	107.48875      	106.74335      	106.76185      	106.58837      	106.51148      	107.102455     	106.93692      	106.48499      	107.08428      	106.88922      	106.68645      	106.43418      	107.06212      	107.064415     	107.33358      	106.60973      	106.9869       	106.841064     	107.163124     	107.25099      	107.30738      	107.46593      	111.19965      	102.593765     	98.639885      	96.05659       	94.48032       	94.69671       	95.429565      	97.20873       	98.05852       	98.08678       	
91.412544      	91.74812       	92.34477       	96.66118       	106.071205     	106.26724      	106.408356     	106.72038      	107.19235      	105.62934      	107.74798      	106.76233      	104.945145     	106.56244      	106.500626     	107.10565      	106.93651      	106.65544      	106.15818      	106.69978      	107.50021      	107.062256     	106.990425     	107.077675     	109.0099       	108.75007      	113.17095      	107.29643      	100.900024     	98.47454       	97.39357       	94.15934       	94.209854      	95.39531       	94.20865       	95.47014       	95.617805      	95.95514       	95.281235      	96.55164       	95.99485       	94.820816      	95.70975       	95.139824      	95.86755       	95.389626      	96.23142       	95.99124       	95.71872       	96.04182       	95.56104       	95.53393       	96.16411       	95.90231       	95.288826      	95.14309       	94.9539        	95.65924       	94.79143       	94.535706      	93.42819       	93.91327       	93.831314      	92.99544       	92.59947       	92.81183       	93.37085       	103.108444     	106.62227      	107.269844     	106.71461      	106.57871      	107.1509       	106.11517      	107.31037      	106.75189      	106.90882      	107.22648      	107.38733      	106.8857       	107.02406      	106.65257      	107.56677      	106.96262      	106.93014      	107.178535     	107.356705     	107.39322      	107.252075     	107.935524     	112.248634     	101.873566     	97.45496       	96.716446      	95.526794      	94.695946      	95.14207       	97.567276      	98.66942       	97.222404      	
91.38764       	92.370705      	92.62533       	95.55266       	103.87549      	106.13134      	105.4007       	105.82563      	104.96683      	105.7668       	106.485435     	105.06476      	106.36423      	106.41238      	106.4553       	105.32929      	108.251854     	107.70944      	104.681915     	107.67375      	105.94058      	107.20401      	106.96209      	107.36701      	107.62403      	108.18041      	109.44261      	109.71302      	103.0833       	97.97927       	96.44452       	93.792564      	95.19811       	94.016716      	94.97601       	95.76123       	96.10046       	95.6586        	95.75167       	95.851135      	95.513695      	96.15818       	95.472664      	95.731384      	95.476906      	95.83294       	95.88604       	95.66569       	95.12739       	95.62767       	95.56215       	96.047646      	94.98433       	96.61033       	95.83997       	95.80273       	95.69425       	95.8631        	95.31811       	95.19563       	95.091385      	92.85309       	95.87553       	92.317535      	91.763084      	92.10436       	91.84338       	97.659424      	106.858215     	107.44511      	107.03828      	106.90668      	107.28416      	107.49709      	107.21374      	106.89422      	108.56079      	107.72166      	107.38326      	107.55203      	108.04889      	107.81005      	107.37929      	107.64796      	107.87204      	107.82436      	107.74535      	107.87842      	108.735596     	108.37319      	111.65734      	105.62823      	100.16941      	97.36754       	95.25996       	94.23983       	95.28103       	96.091965      	96.43588       	96.47607       	
91.56795       	94.61532       	94.886086      	95.989174      	103.586044     	105.4369       	105.73865      	107.352936     	105.90212      	108.10117      	105.86192      	106.01341      	109.19546      	108.66447      	106.43469      	109.34355      	108.56321      	107.843376     	105.03006      	106.51035      	107.530235     	107.15851      	106.54142      	106.39253      	107.36378      	107.72691      	107.040535     	112.38953      	102.82992      	97.33083       	95.19817       	94.2614        	94.07817       	94.61867       	94.45334       	95.37212       	95.94823       	95.87477       	95.23794       	95.772026      	95.9099        	95.68493       	95.705315      	95.44286       	95.93854       	95.383835      	95.52855       	95.29461       	95.74863       	95.97376       	95.110306      	95.553955      	95.69945       	95.60415       	95.44005       	95.825195      	95.58946       	95.299095      	96.01599       	94.504036      	94.6233        	94.62025       	94.11697       	92.85408       	93.43227       	92.631744      	92.85765       	96.83064       	104.5921       	106.67406      	106.34651      	106.0358       	105.60927      	105.85205      	106.55159      	106.96401      	106.10851      	106.755806     	106.811874     	106.60391      	106.63088      	106.578384     	105.69831      	107.6721       	106.96813      	106.89511      	107.77257      	107.32448      	107.285614     	107.4069       	107.91678      	108.26612      	100.690094     	98.03108       	97.611565      	95.83048       	95.56808       	96.618774      	97.79979       	97.88867       	
92.67955       	93.859055      	93.52787       	94.49076       	102.63273      	107.64459      	105.882        	105.756355     	106.946075     	107.290215     	107.212296     	106.923256     	106.72183      	106.93749      	106.78783      	107.10013      	107.17413      	108.187225     	106.39392      	106.28836      	107.98585      	107.54215      	107.856895     	106.81477      	108.24043      	107.27755      	109.357414     	112.16011      	103.80738      	99.25496       	98.83131       	95.03319       	93.99195       	93.8784        	94.76127       	95.42285       	96.16182       	95.64165       	95.741425      	95.8517        	95.936         	96.30991       	95.72192       	95.681175      	95.93552       	95.476074      	96.24639       	95.19755       	95.95702       	95.865875      	95.24863       	95.50069       	96.51618       	95.81144       	96.145615      	95.2717        	96.167404      	95.58165       	96.2404        	95.51024       	95.25848       	95.20876       	94.19038       	93.894135      	94.3364        	93.260826      	93.071594      	95.76075       	103.221664     	106.40162      	106.36331      	106.61106      	106.82517      	107.374756     	107.161705     	106.59357      	105.981415     	105.97811      	106.55647      	107.40699      	106.87945      	106.8881       	107.42697      	107.655304     	107.78896      	107.54043      	107.64068      	107.533714     	107.92109      	107.94033      	109.513145     	112.54756      	102.91386      	99.59585       	98.550674      	95.79396       	95.394226      	97.067924      	97.43878       	95.93134       	
95.559906      	97.187256      	95.83295       	95.91867       	100.3857       	107.68496      	106.950714     	108.0827       	108.27936      	108.820465     	108.813324     	108.66026      	108.86176      	110.48893      	110.91193      	107.56859      	106.88424      	109.45111      	109.10984      	108.76286      	108.870895     	108.042175     	108.182076     	108.55498      	109.95462      	109.175        	110.34615      	113.92783      	110.637886     	101.47199      	98.78194       	97.18331       	94.29321       	95.64579       	96.08634       	95.95866       	96.94597       	95.81825       	96.56796       	96.47442       	97.10735       	97.09335       	95.88485       	96.37154       	96.62865       	95.83265       	97.07318       	96.609184      	96.00791       	95.89943       	97.420616      	96.66614       	96.35701       	96.39351       	97.45516       	96.58433       	97.10628       	96.918396      	96.667404      	96.69801       	96.496155      	96.5699        	96.0608        	95.67128       	95.60086       	96.43764       	95.42465       	97.798134      	102.83466      	106.8161       	107.29325      	106.53501      	107.92629      	106.84318      	107.126816     	106.729935     	107.577705     	106.45933      	106.58931      	106.74015      	107.1596       	107.82152      	105.70546      	107.0964       	107.515175     	107.761        	107.86981      	108.08151      	108.54544      	108.41255      	109.06184      	113.892654     	104.99524      	100.84634      	97.54779       	95.24593       	94.69256       	96.07673       	96.027306      	96.19247       	
94.57337       	93.5003        	93.8745        	94.69371       	98.14385       	105.86006      	107.57591      	107.45823      	107.73056      	108.45807      	107.4415       	106.628845     	107.91975      	107.57961      	107.40306      	108.39543      	106.699        	108.02136      	107.290276     	107.805626     	107.725395     	107.356445     	107.70039      	108.54821      	108.61738      	107.2172       	108.39141      	111.092606     	108.02556      	101.35742      	97.90302       	95.18316       	93.22616       	94.35374       	96.325775      	96.81491       	96.33965       	95.32252       	98.095146      	97.42861       	96.730705      	95.30753       	95.30078       	95.65855       	95.93651       	95.47707       	95.20392       	96.93662       	95.02991       	95.84964       	95.959694      	96.09553       	95.52964       	95.52978       	95.837685      	96.52882       	99.0758        	96.68477       	96.25901       	98.24817       	95.64323       	92.78688       	93.818886      	94.12506       	91.7314        	93.279236      	94.51085       	95.6563        	100.93616      	108.30684      	107.85558      	107.94882      	107.573074     	108.234314     	107.45245      	107.64862      	108.0414       	108.611885     	107.94545      	108.2021       	108.08818      	108.2141       	108.609245     	107.7452       	108.20694      	108.52593      	108.67727      	107.87967      	109.223015     	109.405205     	107.70706      	111.84588      	106.622955     	100.064354     	97.41857       	95.503136      	95.27061       	96.263466      	96.46707       	95.23446       	
93.87093       	93.44822       	93.9383        	93.424095      	96.61706       	103.03205      	107.528534     	106.57351      	108.04779      	107.20915      	108.05642      	107.57286      	107.85784      	106.83861      	107.0725       	107.82938      	107.551094     	107.181305     	108.04539      	106.92729      	105.92659      	108.27793      	107.61165      	108.09021      	108.27466      	107.49533      	108.61451      	110.23164      	112.40076      	101.01887      	97.19751       	95.22005       	94.37284       	94.66323       	96.6453        	95.70003       	96.49616       	99.08243       	99.26333       	96.59723       	93.593025      	95.99938       	96.232544      	96.30271       	96.70075       	95.78247       	96.702515      	95.62691       	95.5786        	95.74095       	95.9971        	96.13505       	94.803314      	96.41235       	96.328156      	95.78637       	96.04714       	95.97821       	96.310555      	95.35062       	95.74569       	95.19483       	94.76853       	95.28194       	93.918816      	92.78246       	93.48969       	93.38695       	97.972084      	105.47509      	107.60868      	106.87167      	107.40562      	107.48977      	106.84539      	107.65686      	106.368286     	107.729576     	107.805374     	106.90599      	107.68276      	107.93663      	107.7301       	107.17626      	107.41724      	107.62213      	107.1292       	107.70862      	107.39091      	108.70659      	108.55444      	111.975204     	108.033585     	99.97799       	98.22747       	97.75009       	98.251625      	97.32218       	94.91543       	96.03133       	
94.3487        	93.166374      	93.18891       	93.0856        	94.35746       	101.525314     	107.50851      	107.147736     	107.1444       	107.229935     	107.789825     	107.57139      	107.35106      	106.68321      	107.9823       	107.03866      	108.91556      	106.5158       	107.32203      	107.258415     	107.43605      	107.70034      	106.97381      	107.52578      	108.1217       	107.399185     	108.46991      	108.16053      	113.246025     	102.631836     	97.95707       	96.893425      	94.485         	95.94739       	94.36595       	95.18382       	95.764366      	95.747765      	95.72229       	97.21998       	96.02645       	96.31444       	96.765785      	95.745964      	96.50196       	95.60411       	96.34306       	95.74528       	96.0389        	96.34656       	96.30979       	95.757645      	96.1589        	95.84465       	96.056694      	95.77629       	95.982834      	96.13714       	96.16241       	96.05198       	95.64563       	95.61116       	95.92533       	95.09045       	93.653824      	92.41654       	92.20789       	93.039474      	95.13217       	104.305595     	107.07515      	106.79123      	107.11304      	106.850624     	107.07913      	107.88733      	106.961655     	107.00262      	107.39316      	107.25554      	107.81584      	107.55654      	107.388565     	107.577866     	107.51015      	107.464        	107.20181      	107.64545      	107.84939      	108.061226     	108.28204      	109.01988      	109.20886      	103.914734     	104.033264     	103.27185      	99.79329       	96.45843       	98.22443       	97.89116       	
94.347855      	95.92909       	93.89299       	93.9875        	95.003365      	100.09656      	107.08978      	107.38604      	106.52907      	106.974        	106.869995     	107.008865     	106.86241      	106.50671      	106.89891      	111.38337      	107.93568      	105.60891      	107.40497      	107.69458      	106.60195      	107.82212      	107.44939      	107.024284     	107.946976     	107.24111      	108.06021      	108.78319      	112.88408      	107.630844     	99.91206       	96.354294      	94.67315       	93.48797       	93.8562        	96.1104        	95.407394      	95.87154       	96.626945      	95.71099       	96.589584      	95.90553       	95.97217       	96.03416       	96.23296       	96.47454       	96.23458       	96.72883       	96.34237       	96.53931       	95.68385       	96.289894      	96.30556       	96.52349       	97.251854      	96.53345       	96.526764      	96.31484       	96.65967       	95.92892       	96.55242       	96.26837       	95.99736       	95.728386      	96.30957       	94.45655       	93.029335      	93.1293        	95.903076      	100.13973      	107.37898      	107.78789      	108.15086      	107.91962      	107.69902      	107.66651      	108.093        	107.91205      	108.20134      	107.950195     	108.615845     	107.896126     	107.86922      	107.39276      	107.919235     	108.68853      	108.931725     	109.05746      	109.203285     	109.28125      	109.940094     	110.9422       	112.30232      	109.27446      	106.437775     	101.05655      	100.13767      	99.86502       	99.35233       	100.30695      	
95.42076       	94.89631       	93.8922        	95.89651       	94.531555      	98.76139       	105.570244     	107.444626     	107.26315      	106.82076      	107.33459      	107.43071      	107.17002      	108.090675     	111.308754     	109.722885     	106.283104     	108.13897      	107.54474      	107.93601      	108.246056     	107.91135      	107.81084      	108.154465     	107.42032      	108.09041      	108.437584     	108.83938      	111.37784      	110.221436     	99.65578       	96.67          	95.94068       	95.70345       	98.5646        	96.01212       	93.94831       	96.75724       	95.96467       	95.1072        	96.209724      	96.11816       	94.9205        	96.180466      	96.05439       	94.84407       	95.685196      	95.54321       	95.1885        	95.72617       	95.502686      	95.54656       	96.07525       	95.40341       	96.04114       	94.876915      	95.33417       	95.72162       	95.68603       	95.1336        	95.96745       	95.34376       	94.86728       	95.352875      	92.55024       	97.099625      	94.850174      	93.003174      	93.58223       	99.65506       	106.497185     	107.7278       	106.6841       	107.90172      	107.63239      	107.252396     	107.10123      	106.722984     	107.12364      	107.90298      	107.27971      	107.05547      	107.61076      	108.02283      	107.29354      	108.73791      	108.0726       	107.82389      	108.39058      	107.549965     	108.38743      	107.98803      	108.5026       	109.728775     	110.946365     	106.128235     	104.0087       	103.937546     	102.89932      	103.64898      	
93.96343       	94.03101       	93.35758       	93.16692       	93.181114      	94.5921        	102.82399      	107.2894       	106.45399      	106.224884     	106.93301      	107.041985     	106.87665      	106.48012      	107.55888      	107.05463      	106.838066     	106.94673      	106.82398      	107.64176      	106.66886      	107.38602      	107.578445     	107.23922      	106.676506     	106.5131       	107.057945     	107.34018      	107.67331      	112.54587      	102.40285      	98.32552       	96.17955       	93.552635      	94.28368       	94.83421       	94.44982       	95.22516       	96.153885      	95.86445       	95.98906       	96.79477       	96.49682       	97.42848       	95.52955       	95.242874      	95.90342       	95.99071       	95.81834       	96.049126      	95.74448       	95.917755      	96.56091       	96.165535      	96.781746      	96.42121       	95.96252       	95.5585        	96.0571        	96.54637       	95.683136      	96.335236      	95.58035       	95.614494      	95.945206      	94.74152       	95.06763       	94.00675       	95.957436      	97.47951       	104.33994      	107.23032      	106.94647      	106.92563      	106.496765     	107.68614      	106.641106     	108.85418      	107.30011      	106.35068      	107.02559      	107.57436      	107.071045     	106.94471      	107.28422      	106.88595      	107.23546      	106.958595     	107.80148      	107.23334      	107.25436      	107.510826     	107.34077      	108.26606      	108.44662      	109.4818       	108.744545     	107.39306      	107.85791      	108.27341      	
94.13916       	94.06906       	92.748886      	94.62158       	94.64878       	95.43448       	99.79349       	107.34664      	107.28045      	106.408424     	106.7901       	106.96359      	107.23606      	107.67399      	107.470146     	106.46322      	106.488144     	107.06944      	106.743515     	107.66042      	107.18225      	107.05679      	107.21533      	106.8529       	107.93058      	108.28508      	107.52006      	107.80763      	108.63912      	112.303635     	105.27011      	99.41285       	98.267006      	94.27512       	93.27552       	93.57922       	94.64573       	94.380745      	95.40998       	94.83318       	95.420555      	95.20465       	95.03539       	95.14371       	93.41127       	94.870346      	95.20669       	95.37158       	95.51639       	95.15626       	95.88504       	95.52444       	95.85077       	94.89076       	94.68985       	95.94449       	95.35846       	95.844         	95.26032       	95.17848       	95.61408       	95.52857       	95.13011       	94.45657       	93.575775      	94.69199       	92.576775      	92.10324       	92.82799       	95.89934       	101.651184     	106.73048      	106.29878      	106.44638      	105.88762      	105.95917      	106.4502       	106.72527      	106.30665      	106.76872      	106.45781      	106.60177      	106.61781      	106.53501      	106.20896      	106.532524     	106.29559      	106.32878      	106.63012      	107.001724     	107.395966     	107.30994      	107.81957      	108.53493      	108.123665     	109.76403      	109.13468      	107.99913      	107.32502      	107.939224     	
95.34409       	94.58021       	95.06637       	93.61648       	94.76185       	95.03603       	97.06993       	105.9705       	106.82551      	106.92429      	106.37125      	106.08905      	107.31806      	106.79092      	105.63071      	107.36232      	106.57887      	106.485176     	106.23868      	106.52475      	106.657036     	106.16927      	105.31703      	107.18397      	105.960045     	106.22918      	106.34054      	105.83728      	106.87932      	110.2135       	108.54195      	102.141014     	96.69494       	93.951164      	93.948395      	95.73006       	95.29734       	95.239525      	95.56395       	94.2891        	96.46493       	96.49873       	96.686615      	96.448235      	96.51137       	96.18313       	96.61862       	95.45328       	96.04445       	95.93077       	96.179146      	96.449684      	95.77854       	96.581474      	95.86485       	96.381165      	96.1283        	96.60375       	95.56019       	95.66832       	96.02305       	95.75965       	95.35488       	95.59808       	94.15248       	94.09219       	92.79203       	92.801674      	92.49795       	93.88847       	100.41335      	106.77469      	107.29816      	107.53011      	106.93143      	107.59086      	107.968605     	107.65255      	107.40461      	107.02662      	108.05955      	107.39357      	107.33284      	107.96254      	107.3671       	107.48536      	107.45857      	107.85887      	107.93688      	107.655876     	108.934105     	107.638405     	107.21609      	108.18271      	108.91244      	109.38743      	108.97378      	109.46072      	108.63933      	107.20904      	
94.51722       	95.173584      	94.565735      	93.44242       	94.19702       	93.930275      	97.32194       	103.06503      	106.289        	105.738014     	105.78113      	107.04694      	106.460365     	106.26769      	106.654495     	106.46326      	105.91226      	105.11676      	105.69529      	106.864075     	106.152016     	105.990036     	105.72671      	105.901794     	106.31528      	105.61934      	107.0093       	105.45419      	105.8613       	109.010376     	106.673546     	99.56191       	97.941376      	96.30574       	93.820076      	94.055756      	94.84718       	95.41271       	95.82113       	95.88336       	96.16373       	96.49172       	96.05906       	95.63395       	96.010445      	95.71731       	95.5327        	96.473694      	96.13289       	96.56291       	95.92377       	96.32928       	96.91365       	96.99435       	97.818756      	95.081276      	96.12361       	96.1478        	95.71588       	96.729294      	95.392265      	95.440506      	94.59334       	97.26932       	96.36528       	95.23338       	93.89422       	93.022766      	92.03438       	92.17655       	97.0646        	105.57435      	107.90817      	107.52521      	107.31548      	107.28469      	107.58605      	107.54081      	107.286446     	107.11963      	107.83964      	107.638405     	107.8292       	107.24766      	107.74237      	107.50143      	107.550606     	107.44318      	107.66705      	107.52961      	109.762054     	108.95973      	106.18641      	107.892944     	108.48116      	108.867        	108.94922      	109.72743      	108.54465      	107.2971       	
94.276794      	94.507706      	93.65173       	92.68983       	92.72968       	94.088875      	96.78405       	101.138725     	106.54295      	106.7857       	106.783585     	106.50309      	106.478424     	106.734344     	106.22593      	106.4235       	106.70038      	106.79014      	106.477715     	106.38728      	106.90503      	106.24887      	106.87496      	106.62596      	106.129234     	106.11569      	106.60982      	106.709724     	106.60254      	109.085175     	109.993416     	101.91439      	98.65531       	97.1733        	95.447754      	93.684845      	95.60574       	95.3416        	95.99117       	96.326454      	96.10941       	96.330734      	95.940605      	96.55971       	96.00154       	95.46726       	95.85329       	95.50622       	96.57582       	95.77468       	95.92472       	96.21001       	95.97702       	95.18123       	95.91137       	96.505684      	95.11818       	95.880394      	95.32437       	94.97045       	96.85625       	95.84383       	94.9461        	93.98767       	93.48905       	92.96941       	96.26361       	95.96622       	94.1157        	94.28128       	97.15513       	103.89346      	107.58566      	107.413376     	107.86562      	107.29185      	107.78421      	108.01051      	107.29974      	107.91967      	107.70315      	107.11686      	107.78931      	107.617516     	108.37347      	107.91795      	108.687805     	108.49387      	108.547775     	113.97748      	109.42525      	107.3318       	106.53823      	106.22867      	108.86432      	108.75242      	108.81404      	109.88636      	108.55022      	107.054695     	
95.46479       	94.37486       	93.71533       	93.20825       	92.507706      	92.950165      	92.98344       	100.912476     	106.35457      	106.07901      	106.948296     	106.62325      	106.12989      	106.22116      	106.48887      	106.51922      	105.97507      	106.571        	106.67215      	106.29143      	105.83368      	106.93757      	105.919655     	106.8414       	106.83926      	106.78589      	107.00237      	107.32247      	106.46926      	107.38083      	111.93873      	102.696655     	100.36111      	97.30358       	94.27935       	93.62068       	94.98266       	94.956276      	95.917076      	96.23516       	95.738014      	96.163025      	96.265         	96.13978       	96.11817       	96.28225       	95.47462       	96.51763       	96.5763        	95.59131       	95.80646       	95.91711       	96.28256       	95.84069       	96.24184       	95.744896      	96.08539       	94.39005       	95.79423       	96.26097       	95.65327       	97.677124      	96.851974      	97.72153       	97.07444       	97.960526      	100.11061      	97.81816       	95.83442       	99.65213       	100.88161      	106.32996      	107.11587      	107.47079      	106.831726     	107.46824      	107.10416      	107.7062       	107.11704      	107.45376      	107.410774     	107.04511      	106.75974      	107.19555      	107.67831      	107.817924     	107.37917      	107.80134      	107.6529       	107.810715     	108.21243      	108.22694      	108.086235     	108.04593      	108.30787      	108.33419      	108.19216      	109.233116     	108.25524      	107.6728       	
95.04145       	94.95385       	94.40242       	94.46732       	94.10119       	93.70279       	93.94434       	98.011215      	105.9955       	106.17987      	106.766716     	106.18305      	107.54174      	106.49547      	106.78368      	107.235466     	106.529236     	107.2952       	106.968605     	106.78488      	107.154495     	106.57977      	106.83011      	106.92289      	107.471054     	106.85352      	106.44042      	107.27229      	107.0945       	106.89589      	110.50604      	106.1119       	98.68996       	96.49813       	95.12678       	93.94021       	94.34428       	95.80676       	95.73164       	95.98597       	96.51349       	96.45672       	96.37792       	95.972244      	96.20322       	96.32005       	95.85078       	96.18597       	95.80983       	95.72721       	95.81484       	96.93402       	96.71318       	94.35512       	94.95532       	96.029884      	96.11092       	97.79954       	96.15503       	98.07667       	100.67971      	99.980515      	100.620964     	99.41762       	98.37823       	101.09222      	100.80621      	101.647064     	104.00983      	102.33481      	107.245575     	107.80755      	107.48575      	107.18836      	106.76893      	107.411224     	107.14749      	107.17914      	106.73223      	106.85211      	107.326485     	107.10035      	107.16046      	106.91667      	107.275475     	107.54824      	107.183815     	107.01013      	107.33062      	107.99694      	107.80891      	107.45936      	108.49263      	107.76645      	107.76588      	108.93432      	108.33411      	109.34249      	109.02147      	107.26044      	
94.50043       	94.63599       	94.18275       	94.701004      	91.663956      	94.46678       	94.4945        	97.7573        	103.913895     	106.802505     	106.624825     	106.09615      	106.404        	106.25056      	106.41163      	106.90965      	106.255295     	107.32458      	106.638824     	106.430176     	106.94588      	106.92357      	106.42986      	106.5065       	106.97593      	106.60379      	107.15435      	106.84356      	108.16229      	107.55691      	110.39364      	108.49855      	102.12328      	98.292915      	95.31741       	93.2037        	94.45111       	94.30712       	95.21434       	95.75692       	95.61867       	95.18232       	95.83566       	96.1753        	96.40157       	95.7382        	94.78867       	94.61425       	96.87378       	95.35065       	96.75449       	97.33273       	95.79882       	97.30749       	96.27004       	97.36032       	95.941574      	98.22094       	97.84949       	100.24002      	99.219765      	98.2765        	103.37627      	100.67573      	104.05259      	107.747        	107.56862      	107.21338      	106.966545     	107.6423       	106.73512      	106.37587      	106.54443      	105.7361       	107.13867      	106.53384      	106.62188      	106.50993      	105.63974      	106.490715     	106.291115     	106.50435      	106.576454     	106.8207       	106.51369      	106.22429      	106.45235      	106.314835     	105.72928      	107.44706      	106.4458       	106.848564     	106.74725      	106.571556     	106.57997      	106.93942      	107.31264      	107.61576      	105.65959      	105.63927      	
95.43743       	94.81684       	95.02116       	93.92117       	92.79451       	92.74289       	94.15869       	94.04097       	103.132645     	106.335846     	106.17756      	106.651566     	105.56893      	107.83007      	105.758446     	106.242676     	106.24737      	106.644516     	106.480934     	105.7317       	106.24027      	106.92861      	106.45607      	106.14452      	106.29249      	105.84858      	105.82963      	108.88631      	106.61323      	107.006905     	106.24855      	110.9822       	100.480225     	97.13286       	95.21829       	93.32932       	93.03378       	94.36059       	94.2147        	94.64056       	94.599594      	95.783134      	94.28803       	95.48782       	95.19382       	96.11975       	96.06779       	96.42921       	96.2977        	96.87172       	98.45633       	96.24817       	98.7924        	99.540215      	98.71591       	99.82331       	100.3099       	101.307625     	102.63513      	105.25588      	105.34962      	108.89685      	108.63205      	108.099045     	106.956856     	107.18342      	107.00911      	107.299484     	106.65117      	106.70621      	105.71382      	107.19732      	106.56952      	107.42958      	107.14904      	107.28472      	107.034        	107.01412      	106.78839      	107.35953      	107.035355     	106.96565      	107.29021      	107.39559      	107.25035      	106.52112      	107.731895     	107.53159      	107.272766     	107.5268       	107.48368      	107.434875     	107.63067      	108.25014      	108.41711      	109.197655     	109.13659      	109.6456       	110.14274      	108.959526     	
95.7292        	95.414665      	95.06835       	94.67893       	93.275154      	94.33455       	93.390976      	93.45039       	101.62143      	106.68213      	106.86929      	106.91511      	107.502686     	107.92349      	106.45944      	107.00564      	107.66235      	107.0404       	107.400795     	106.75709      	108.014565     	107.42294      	107.89704      	107.402664     	107.71224      	108.26306      	107.99623      	107.991135     	108.44363      	109.100525     	110.19045      	114.529945     	102.96479      	99.720535      	99.00557       	96.14628       	93.71394       	94.94776       	94.99751       	95.56147       	96.28595       	96.47148       	98.15878       	96.6123        	95.53254       	96.56787       	98.103455      	99.81419       	98.66519       	99.423965      	97.78655       	102.2247       	102.21886      	102.6736       	103.384254     	105.34525      	107.941505     	108.43832      	108.75947      	107.91059      	108.66355      	108.28223      	108.08732      	108.082504     	107.511406     	107.348915     	107.36857      	107.83579      	106.563194     	107.17495      	107.18735      	107.22956      	107.0607       	106.28201      	106.73544      	107.65747      	107.3901       	107.41993      	107.566765     	107.19559      	106.77407      	107.24716      	107.291626     	107.60027      	106.90736      	106.714676     	107.04273      	107.18851      	107.29112      	106.65404      	107.28212      	107.5028       	106.98361      	107.60044      	106.91313      	107.65985      	107.78171      	108.08391      	108.14058      	108.70746      	
94.61995       	94.81054       	94.74369       	94.70025       	92.98378       	93.28324       	92.77283       	94.134766      	100.23056      	106.51949      	106.82156      	105.6          	107.73747      	105.84074      	105.647064     	106.93338      	105.828865     	106.44256      	105.689674     	106.33286      	106.34411      	106.40545      	106.65163      	105.748085     	106.351776     	106.99649      	106.81566      	107.1179       	107.14765      	107.14891      	108.092316     	109.339195     	108.446724     	100.939735     	97.69754       	95.78958       	94.89389       	96.53575       	96.89352       	95.14987       	95.927155      	96.051605      	94.56299       	99.66564       	96.47959       	98.30018       	98.81349       	100.62         	101.4431       	102.98966      	99.60701       	104.18878      	108.85106      	108.92489      	108.3645       	107.848206     	108.44986      	107.84935      	107.9045       	107.93537      	107.47629      	106.691574     	107.06298      	106.59995      	106.76455      	106.95707      	106.88507      	106.2726       	106.00385      	107.63158      	107.117615     	106.844604     	106.454094     	106.75955      	107.38553      	106.51991      	106.71147      	106.30596      	107.519554     	106.83174      	106.76853      	106.45394      	107.306274     	107.20012      	106.30946      	106.60967      	107.133316     	107.26553      	107.93146      	106.242355     	108.014084     	107.49739      	107.08579      	109.11535      	107.107735     	110.4789       	109.54331      	109.37595      	109.75135      	107.68157      	
95.595535      	95.63348       	95.82134       	95.05122       	95.581795      	93.59603       	93.91945       	95.753075      	98.38295       	107.000275     	107.04852      	105.57815      	107.54087      	107.592384     	107.72542      	107.28362      	108.64455      	107.559654     	106.74028      	107.81675      	107.60384      	107.89609      	107.44         	108.64745      	108.127525     	108.0448       	107.93956      	108.29342      	108.56125      	108.61319      	110.38896      	112.21373      	109.60372      	102.33821      	101.22493      	101.74165      	97.45265       	99.51374       	99.061165      	98.242386      	98.98145       	99.29065       	101.034904     	102.26093      	98.43483       	101.41864      	102.99667      	103.12914      	107.7675       	108.563484     	108.67017      	107.9925       	108.38241      	107.90043      	107.33739      	107.82292      	107.40752      	107.43544      	106.964806     	106.92394      	106.79533      	107.02177      	107.18497      	106.79696      	107.33027      	106.0752       	106.33302      	106.98638      	106.491066     	105.58288      	106.514336     	109.03458      	105.817116     	105.42592      	105.70348      	106.66992      	107.08688      	106.55118      	107.43574      	106.68481      	106.62132      	106.97577      	106.41726      	106.53912      	107.11115      	106.87376      	106.82531      	106.9322       	108.3323       	106.06077      	107.16882      	107.77137      	107.33463      	106.688        	106.98426      	108.577324     	108.5347       	108.61428      	108.33242      	107.537766     	
94.967735      	95.019135      	95.79148       	94.686424      	94.364006      	95.38512       	94.178345      	94.32324       	96.69358       	103.285355     	107.95475      	106.81982      	106.211334     	106.74661      	106.98475      	107.45316      	107.73057      	107.251686     	106.866264     	107.42149      	107.353134     	107.36332      	108.29977      	107.35323      	109.14168      	108.49323      	107.63677      	107.84533      	108.4596       	108.635414     	109.233        	110.448906     	112.945854     	106.82351      	107.6814       	103.23645      	99.39768       	100.03521      	100.16161      	100.291504     	98.82396       	101.84463      	101.82619      	106.31409      	104.87369      	109.21158      	107.66139      	107.59392      	107.52219      	108.01687      	107.65628      	107.304565     	107.41976      	107.36678      	107.00718      	107.39073      	107.41741      	106.65113      	106.620155     	106.6976       	106.584465     	106.79854      	106.6686       	106.5466       	106.41221      	106.796104     	106.63784      	107.13503      	106.757034     	106.094444     	108.56947      	108.29414      	105.0991       	104.2488       	106.60847      	106.5104       	106.67733      	106.993576     	107.36337      	106.48542      	108.0157       	106.7153       	106.83467      	107.30998      	106.66373      	107.2553       	107.03208      	106.967995     	107.28827      	106.7814       	107.69829      	107.24866      	106.85358      	106.26679      	106.99603      	107.91024      	107.60875      	107.18949      	107.383965     	107.18221      	
95.57527       	95.441475      	95.78672       	94.82067       	94.519135      	94.13619       	94.38231       	93.49535       	94.07568       	99.93739       	107.14681      	106.11096      	106.49406      	106.8718       	105.53103      	106.635666     	106.19441      	106.77193      	105.61433      	106.54316      	105.84728      	106.31074      	106.39888      	106.286255     	106.88094      	106.72843      	106.56844      	106.63725      	107.83663      	106.49775      	106.754684     	108.7492       	107.90796      	110.25426      	109.22532      	105.12969      	102.12         	104.010544     	104.75105      	107.74994      	106.84154      	107.99542      	107.97032      	108.7164       	108.19474      	107.26905      	107.69002      	107.039795     	107.23584      	106.71403      	107.79034      	107.42701      	106.30868      	107.15603      	106.64124      	106.34633      	106.7296       	107.06264      	106.44417      	106.09536      	106.6688       	106.97359      	106.2795       	106.64792      	106.82157      	106.82795      	106.172554     	105.63973      	106.422356     	105.769615     	106.0993       	107.10185      	106.82506      	106.53285      	106.52863      	107.23822      	107.16822      	107.39905      	106.79431      	107.46403      	106.75265      	106.58006      	106.980835     	106.81027      	106.51544      	106.859406     	107.33011      	106.39686      	107.00477      	108.14001      	106.45642      	109.489914     	108.62082      	107.15271      	106.5912       	109.60019      	107.04726      	106.013016     	107.515625     	107.82258      	
95.23705       	94.89676       	95.63738       	94.358475      	94.097374      	94.682175      	92.39324       	94.124794      	95.07672       	98.20203       	104.12286      	106.5318       	105.98077      	105.73672      	106.06597      	105.0962       	106.12805      	105.938        	105.68319      	105.6881       	106.39191      	106.591835     	105.98856      	105.608505     	106.97632      	106.00281      	105.59014      	106.500336     	106.063614     	105.87767      	106.4954       	106.41854      	107.03073      	107.19513      	107.099365     	107.24476      	107.12545      	106.85114      	106.76836      	107.085526     	107.19822      	107.216156     	106.699135     	106.67918      	106.565956     	106.84041      	105.99173      	106.068596     	106.015434     	106.212875     	106.145775     	106.41435      	105.71774      	105.975945     	106.33797      	106.33935      	105.24206      	105.85566      	106.16357      	105.990295     	106.48631      	105.85127      	106.282715     	105.65981      	105.6403       	105.431114     	105.51928      	106.05117      	105.47241      	105.55265      	105.326485     	105.97542      	106.230934     	106.13932      	106.26906      	105.60999      	105.696335     	106.17149      	105.0372       	106.1465       	105.70397      	104.65632      	105.65495      	105.00354      	104.971115     	107.22214      	106.9323       	107.07016      	107.42105      	107.66625      	107.44015      	106.4397       	107.48218      	107.14417      	107.1135       	107.28114      	106.97747      	107.63428      	106.89285      	106.032196     	
95.0953        	95.03342       	95.01164       	94.7385        	93.831406      	93.89311       	92.79856       	92.30131       	92.67406       	94.25835       	103.59157      	107.02224      	106.27465      	105.570854     	105.95524      	106.998085     	106.07994      	106.37332      	106.00926      	106.16468      	106.30966      	106.14124      	106.453835     	106.01526      	106.48947      	106.1541       	106.88878      	105.80281      	106.14902      	105.88733      	106.83363      	106.84865      	106.99028      	107.05984      	107.08973      	107.86282      	107.005196     	106.85695      	106.568924     	107.11685      	107.03728      	106.504555     	106.61722      	107.21254      	106.47115      	106.60527      	106.28632      	106.52322      	106.87186      	106.04307      	106.093666     	106.31127      	105.38441      	106.09416      	106.57599      	106.023094     	105.74186      	105.78081      	106.61624      	106.503525     	105.82502      	105.845375     	105.8399       	105.85812      	105.43408      	106.09517      	106.075745     	105.6431       	105.62704      	105.1961       	105.735        	106.13279      	106.16634      	106.33628      	106.07715      	106.40261      	106.28244      	106.06349      	106.21358      	106.50113      	107.06597      	106.2994       	106.19901      	106.301506     	106.02465      	106.96152      	106.85401      	106.3647       	106.63317      	106.40567      	106.77375      	106.51554      	107.067375     	106.45659      	107.2435       	106.6581       	108.343575     	109.07364      	108.14324      	108.31331      	
96.108826      	95.40821       	95.32991       	95.088875      	94.91388       	94.18619       	93.43947       	93.18861       	94.21436       	93.92249       	101.78716      	105.9415       	107.329956     	106.17328      	106.566864     	106.61461      	106.64447      	106.351425     	107.42483      	106.80327      	106.921524     	106.47482      	105.985146     	106.92913      	106.69288      	107.11328      	106.54345      	106.59681      	107.0336       	106.58092      	106.89519      	107.56966      	106.47995      	106.9396       	106.81236      	106.96194      	107.91679      	106.53773      	106.57431      	107.41259      	106.395004     	107.41111      	106.108826     	106.62645      	106.61797      	106.48201      	106.09435      	106.35841      	106.23501      	106.11722      	106.30888      	106.13354      	106.066185     	105.448265     	106.152306     	106.44389      	106.226746     	105.94856      	106.26349      	106.44995      	106.24245      	106.69571      	106.3232       	106.14488      	106.33673      	106.05181      	106.05447      	106.391        	105.7142       	105.86491      	106.49762      	105.898094     	106.61497      	106.33527      	106.45164      	106.97399      	106.83475      	106.5393       	106.43304      	106.864784     	106.62148      	106.60399      	106.10401      	105.9304       	107.35378      	106.69276      	106.68275      	106.35943      	106.518974     	106.66322      	106.29528      	106.94092      	106.9349       	107.37035      	106.77905      	108.00961      	106.94501      	107.26538      	107.84451      	107.740456     	
95.45008       	95.28092       	94.40301       	94.81715       	94.367584      	93.85966       	94.150345      	93.93089       	92.88188       	95.10658       	100.06272      	106.37671      	107.260086     	106.354576     	106.74902      	106.454025     	106.547676     	106.40291      	106.6008       	106.91888      	106.827995     	106.25819      	106.28347      	106.86825      	106.42315      	106.36701      	106.427505     	106.90835      	106.11813      	106.231705     	107.074066     	107.045166     	106.02692      	106.475105     	106.47723      	106.81663      	106.95262      	106.29132      	106.17529      	106.91268      	107.17327      	107.072014     	106.88783      	107.06714      	106.882904     	106.28111      	107.280045     	106.68888      	106.30052      	107.30988      	106.834145     	106.63807      	106.37247      	106.31395      	106.97611      	106.164276     	106.314674     	106.96993      	106.73564      	105.895195     	106.73426      	106.818054     	106.35716      	106.446976     	106.93705      	106.54536      	106.236755     	106.205536     	106.67983      	105.91026      	106.563446     	105.72073      	106.87213      	106.315155     	107.52539      	106.920845     	106.65872      	106.56929      	106.80727      	105.9651       	107.680176     	106.57068      	107.12931      	106.8834       	106.786545     	106.94627      	107.11265      	107.17029      	106.61501      	107.01013      	106.655014     	106.99385      	107.277664     	106.900505     	107.15344      	107.21268      	107.29921      	107.622986     	107.37327      	106.547195     	
96.101295      	95.59641       	94.90475       	96.88504       	95.899055      	96.14917       	95.659195      	95.31814       	94.674515      	93.8324        	98.54186       	105.85455      	106.58449      	107.13495      	106.85022      	107.05697      	107.071365     	106.911476     	107.37455      	106.496124     	106.89008      	106.72058      	107.46313      	106.97483      	106.88161      	107.03258      	106.80467      	106.64434      	106.88528      	106.48923      	106.52775      	106.52461      	107.22868      	106.793594     	106.6073       	107.06911      	106.79408      	106.44868      	106.289185     	106.499565     	106.888504     	106.529625     	106.70837      	106.17988      	106.08066      	106.297386     	106.46543      	106.5066       	106.35439      	106.863        	106.43465      	106.36195      	106.46902      	106.59323      	106.35714      	106.60739      	106.55321      	106.24295      	107.02816      	106.31091      	106.795845     	106.99847      	106.96367      	107.036095     	106.78229      	106.58195      	106.85367      	107.629906     	106.27735      	106.63565      	106.15952      	106.6026       	106.98228      	106.17432      	106.60234      	106.64761      	107.30117      	106.99689      	106.233696     	107.37204      	106.05584      	105.9021       	107.247345     	106.054245     	106.59373      	105.29759      	107.8829       	107.62008      	107.759285     	106.971436     	107.35442      	106.39167      	107.333855     	107.361496     	107.11491      	107.22177      	107.900314     	107.338        	107.86688      	107.495224     	
96.59886       	94.00539       	96.299866      	97.86694       	96.020035      	99.04318       	97.180046      	97.36405       	97.10843       	98.35844       	101.494415     	107.19756      	107.10655      	107.82479      	107.00722      	106.95521      	106.906784     	106.56244      	106.962685     	106.91961      	106.66836      	106.9484       	107.12494      	107.23753      	107.253006     	106.18844      	107.11695      	107.18063      	107.43009      	107.75528      	106.749695     	106.88315      	106.95284      	107.25917      	107.10348      	107.0076       	107.34541      	107.19617      	106.286865     	107.06334      	106.90004      	107.04327      	107.384315     	106.99538      	107.5415       	107.59796      	107.46023      	106.77041      	107.05092      	107.228966     	106.733246     	106.362976     	107.033516     	107.03924      	106.95447      	106.92366      	106.98882      	106.732574     	107.19308      	107.35447      	107.18522      	107.49049      	106.75251      	106.75124      	106.90105      	106.555374     	106.754555     	106.98268      	106.81554      	107.122856     	106.943375     	107.580574     	107.57702      	107.21713      	107.66354      	107.720116     	106.9967       	107.51395      	107.159996     	107.49776      	107.386154     	107.52673      	107.880035     	107.55956      	107.78788      	107.576904     	107.06317      	106.82759      	107.64402      	107.84992      	106.94356      	107.44524      	107.11754      	107.27167      	107.807045     	107.33361      	107.54258      	107.36314      	107.46749      	107.53983      	
97.69547       	98.29954       	97.47606       	99.34748       	98.83045       	97.64694       	101.17076      	99.48375       	100.32153      	101.54361      	105.46728      	106.66787      	106.04551      	105.85919      	105.566734     	105.84809      	105.85691      	106.09686      	105.682686     	106.437416     	105.77825      	106.003525     	106.263275     	106.46393      	106.350365     	106.60847      	106.47561      	106.12977      	106.21367      	105.93765      	105.958664     	106.04999      	106.015755     	106.25036      	106.227036     	106.27649      	105.56296      	106.84727      	105.738        	105.87973      	105.767105     	105.43801      	106.29011      	105.565704     	105.970924     	105.43223      	105.74245      	106.05671      	105.715034     	105.98531      	105.88623      	105.61847      	105.48703      	105.63847      	105.82476      	105.43273      	105.68332      	105.77073      	105.84941      	105.83633      	106.39236      	105.9222       	105.54815      	106.345055     	106.08624      	105.79106      	106.47463      	106.21683      	106.07543      	106.25697      	106.404015     	106.69543      	106.097206     	106.39333      	106.7336       	106.99235      	106.63312      	106.95115      	106.89953      	107.02874      	107.07024      	106.95488      	107.11563      	106.78818      	107.33486      	106.76821      	107.61922      	107.5437       	107.08805      	107.29706      	106.95345      	106.955986     	107.323235     	107.596535     	107.77456      	108.0507       	107.92231      	108.06756      	108.32857      	108.268364     	
100.22027      	101.03367      	100.07037      	100.55001      	102.86163      	102.14473      	106.03081      	107.29183      	107.27837      	107.42724      	107.41261      	106.976265     	106.59871      	106.45152      	106.872185     	106.91122      	106.2878       	107.04686      	106.94303      	106.52538      	106.571754     	107.11191      	106.592606     	106.45041      	106.890976     	106.90371      	106.5381       	106.46991      	106.40526      	107.078865     	106.243935     	107.1962       	106.87335      	106.10002      	107.57476      	106.95533      	106.93868      	106.7471       	106.76794      	106.47806      	106.470634     	106.72329      	106.918045     	106.42954      	107.13302      	106.9757       	105.9025       	106.32697      	106.34474      	106.63566      	106.73823      	106.38244      	107.12403      	106.90995      	106.08462      	106.997314     	106.26573      	106.15543      	106.35508      	106.37547      	105.891075     	106.53073      	106.47045      	106.29003      	106.554245     	107.199524     	106.750885     	106.39848      	106.21348      	107.06033      	106.34883      	106.310074     	106.711655     	106.74505      	106.850395     	106.65309      	107.30474      	106.474266     	106.91585      	106.51966      	106.65731      	106.839676     	106.36164      	107.474915     	106.8332       	106.65734      	106.998024     	107.16788      	107.307465     	106.782104     	106.87732      	107.27687      	107.02869      	107.29046      	107.35011      	107.33439      	107.24794      	107.11038      	107.4042       	107.433464     	
102.61963      	104.56537      	105.75434      	109.06958      	107.54406      	106.76627      	107.44727      	106.597855     	105.97002      	107.457954     	106.956406     	106.496796     	105.8699       	106.33888      	106.218124     	106.58111      	106.1579       	106.67928      	106.266396     	106.10673      	106.394455     	106.24481      	106.421326     	106.24626      	106.18046      	106.578964     	106.69858      	106.17951      	106.06688      	106.29841      	106.40877      	106.45771      	106.45194      	106.22871      	106.47053      	106.23732      	107.14485      	105.92923      	106.253395     	105.70112      	106.16459      	105.98052      	106.47415      	106.06577      	106.35085      	106.510544     	106.46244      	106.54806      	105.9774       	106.15356      	106.17439      	105.64599      	106.16855      	106.56743      	105.91334      	107.00155      	106.461525     	106.24025      	106.43723      	106.14974      	106.57132      	106.281876     	106.47181      	106.27307      	106.4489       	106.31248      	106.736725     	106.7282       	106.50211      	106.221985     	105.75979      	106.29246      	106.01886      	106.44519      	106.57654      	106.85528      	106.23502      	106.60105      	106.236115     	106.7689       	106.176834     	106.72422      	106.95959      	106.51403      	106.0212       	106.52259      	106.898315     	107.031845     	106.50415      	106.73365      	106.02377      	104.66934      	106.95452      	107.07094      	107.28497      	107.537704     	108.44968      	108.322174     	107.99636      	107.38157      	
108.64313      	109.07742      	107.80997      	108.43962      	107.89429      	107.31271      	107.74923      	107.36512      	107.08733      	106.75862      	107.26322      	107.13921      	107.706024     	106.94296      	106.75567      	106.84904      	107.36851      	107.17753      	107.2148       	107.103455     	106.629265     	107.211105     	107.173584     	106.35704      	107.35123      	106.71226      	106.899315     	106.72546      	107.25028      	106.94735      	106.80374      	106.870026     	107.473335     	106.38764      	106.99906      	107.262276     	106.85912      	107.73979      	107.37485      	106.969185     	106.92071      	106.44702      	106.82071      	106.89088      	106.61073      	106.64812      	106.27386      	106.57416      	106.73182      	106.857735     	107.53045      	106.3663       	106.406166     	106.27028      	106.195656     	107.32884      	106.83392      	106.7532       	106.58391      	107.01239      	107.093834     	106.52116      	106.880356     	106.451775     	106.04018      	107.07268      	106.23629      	106.61458      	106.60818      	106.21467      	106.09284      	107.299545     	106.484505     	106.97938      	106.818016     	106.72559      	107.25734      	106.70406      	106.97297      	107.20695      	107.187225     	107.57245      	106.89364      	106.98209      	106.78054      	106.480965     	106.7935       	107.50725      	107.43167      	107.45925      	107.29487      	106.732704     	107.437614     	107.27578      	107.29593      	107.29466      	107.13633      	107.28493      	107.756096     	107.824066     	
108.724945     	107.7968       	107.80983      	108.307304     	107.37991      	107.74722      	107.299126     	106.83305      	107.37541      	106.747375     	107.23941      	106.92354      	106.92183      	107.25207      	106.637024     	106.9186       	107.31231      	106.74437      	106.562035     	106.96715      	107.793655     	106.79549      	106.50119      	107.20826      	106.4052       	106.580154     	108.50993      	107.337975     	106.493835     	106.63099      	106.965324     	107.28807      	106.91757      	106.98557      	107.105576     	107.189804     	107.00206      	106.6982       	107.56097      	106.83088      	106.559364     	107.19116      	107.26759      	106.7695       	109.33605      	107.70254      	106.56595      	106.58017      	106.69472      	106.31582      	106.699814     	106.258286     	106.888466     	106.420845     	107.01512      	106.018585     	106.60882      	107.2004       	106.71098      	106.466965     	106.86114      	106.30947      	106.463524     	106.32603      	106.26855      	106.26529      	105.73989      	106.35349      	107.255974     	106.52964      	106.48895      	106.287186     	106.457115     	107.310455     	107.16601      	107.42005      	106.615425     	107.73423      	107.28389      	107.54083      	107.21802      	107.21448      	107.51267      	107.438126     	107.3091       	107.24864      	107.337776     	107.26227      	107.68111      	107.88218      	107.70456      	108.185844     	107.94983      	108.1055       	108.392845     	108.500916     	108.4761       	108.4514       	108.12451      	109.08499      	
107.79165      	107.080956     	106.986626     	108.241516     	107.54788      	107.66406      	107.1031       	106.81696      	107.73968      	106.624374     	106.84534      	107.30898      	107.21435      	107.13623      	107.13587      	107.24105      	107.6791       	106.994934     	107.128426     	107.50785      	107.00789      	107.36106      	106.868805     	107.312004     	106.46349      	109.31771      	108.710754     	106.584114     	105.129906     	108.038826     	107.58983      	107.66097      	108.13587      	107.89325      	107.82346      	107.71247      	108.02783      	107.994995     	108.17565      	107.93129      	107.25289      	108.56991      	107.828926     	109.301315     	107.35021      	105.193665     	107.23068      	107.107315     	108.3619       	107.25715      	107.775116     	107.54319      	107.56189      	107.399475     	107.27108      	107.54122      	107.50061      	107.60532      	107.30112      	107.290825     	107.57414      	107.746445     	107.20408      	107.35466      	108.04304      	106.9212       	107.28913      	107.530754     	107.7008       	107.728615     	107.66717      	107.48913      	107.61557      	107.35698      	108.02058      	107.869225     	107.84873      	107.62148      	108.01241      	107.94814      	107.83507      	107.62866      	107.90241      	108.06298      	108.01224      	108.216225     	108.03903      	108.56117      	108.600266     	108.51017      	108.63878      	108.69701      	108.018875     	108.49301      	108.61147      	107.74595      	108.35435      	108.563446     	111.72514      	111.45527      	
106.11913      	106.57803      	106.17796      	105.91352      	106.85578      	106.439095     	106.24417      	106.508675     	105.721344     	105.82557      	106.28042      	106.38761      	106.711334     	106.36439      	106.44971      	106.269485     	106.444756     	106.56243      	106.76681      	106.90539      	106.70273      	106.26733      	106.71264      	106.54359      	106.74476      	106.79448      	106.78276      	106.74306      	106.718575     	106.6843       	106.678215     	107.04455      	106.74384      	106.505974     	106.72075      	106.78186      	106.917725     	106.5656       	107.14089      	106.60394      	107.524376     	108.34423      	106.40022      	108.744194     	105.42321      	105.55015      	107.228485     	106.88273      	106.560936     	107.503975     	106.986855     	106.70114      	107.35443      	107.09198      	106.896255     	106.763504     	106.7382       	106.226685     	106.50002      	106.597626     	106.99469      	107.00339      	106.7652       	107.53974      	107.020485     	107.00282      	106.688866     	107.95367      	106.94643      	106.74065      	106.95996      	107.25789      	107.10432      	106.72231      	107.56831      	107.036316     	107.23027      	107.431175     	107.39956      	107.271194     	107.473206     	107.43793      	107.35227      	107.74919      	107.419975     	107.54581      	107.77697      	107.95786      	108.13155      	108.04319      	107.61868      	107.76064      	107.890526     	107.96012      	109.03686      	108.9502       	108.536385     	110.57802      	111.86502      	108.52935      	
106.67496      	105.847534     	106.464096     	106.47276      	106.219894     	105.74677      	106.09891      	105.857414     	106.47587      	106.66494      	105.893715     	106.538826     	106.43334      	106.37793      	106.53446      	106.47082      	106.083664     	106.34652      	106.56814      	106.35748      	107.0175       	106.225525     	106.54744      	106.46977      	106.416374     	106.74124      	106.70489      	107.20318      	107.05742      	106.6088       	106.70709      	106.723976     	106.631966     	106.814705     	106.85144      	106.75216      	107.17925      	107.26611      	107.08307      	106.71884      	106.71473      	106.66093      	106.44326      	106.74288      	107.659615     	107.05412      	106.74235      	106.69668      	107.42139      	106.76926      	106.64796      	106.73799      	107.15327      	106.761444     	107.23543      	106.965515     	106.601456     	106.48115      	106.58866      	107.45417      	106.66862      	107.078476     	106.57742      	106.44773      	106.80561      	106.7932       	106.89788      	107.5654       	106.82908      	106.824936     	107.6289       	106.41534      	107.1403       	106.72207      	106.55381      	106.9051       	107.177        	107.01423      	107.07091      	107.031075     	107.30911      	107.238        	107.34642      	107.16278      	106.849655     	107.023865     	107.20294      	106.78506      	107.875465     	106.27826      	107.3471       	107.427574     	106.89623      	107.007545     	107.83025      	108.00095      	107.33628      	108.63746      	109.982        	107.41859      	
106.69007      	107.09864      	106.74137      	107.11154      	107.171776     	107.10643      	107.52909      	107.05004      	107.09217      	106.703636     	107.189186     	107.08502      	107.16368      	107.05854      	107.38762      	107.75362      	106.88284      	107.04476      	107.03442      	107.28402      	107.15369      	107.42659      	107.05042      	107.632904     	106.99031      	107.16467      	106.70352      	107.074684     	107.09609      	106.948715     	107.290565     	107.00865      	107.34732      	107.47761      	106.724266     	107.20564      	106.970276     	107.294716     	107.06649      	106.97905      	106.98119      	106.70237      	106.50728      	106.892105     	107.03998      	107.23155      	106.73659      	106.75302      	107.244835     	106.71185      	107.13127      	106.81065      	106.76919      	106.84005      	106.93103      	107.069336     	106.415825     	107.14854      	106.82476      	107.282486     	106.88573      	107.29325      	107.584        	106.57045      	106.89713      	106.70337      	107.23378      	107.14252      	107.097496     	106.76376      	107.192345     	107.35699      	106.76142      	107.32175      	106.899445     	107.316765     	107.42902      	107.34937      	107.05978      	107.72762      	107.02851      	107.36771      	107.50083      	107.53907      	107.47231      	107.143295     	107.01226      	107.508705     	107.03878      	107.05808      	106.56146      	106.40617      	106.5825       	106.99713      	107.9823       	107.9348       	108.429375     	109.93821      	111.8665       	109.73436      	
106.10675      	106.01824      	106.16468      	106.6089       	106.64173      	106.43759      	106.24315      	106.15584      	106.05715      	106.29584      	105.92629      	106.82302      	106.703606     	106.69013      	107.27769      	106.721085     	107.49638      	106.94374      	107.1962       	107.130066     	106.987274     	107.05239      	107.189804     	106.8442       	106.963684     	106.47053      	106.853836     	106.407104     	107.152954     	106.708046     	106.891        	106.92819      	106.777435     	106.594185     	107.15234      	107.39023      	107.53736      	107.53499      	107.95637      	107.25202      	106.519485     	106.80114      	106.760506     	106.86703      	107.31097      	106.83447      	106.93067      	107.18896      	106.455215     	107.01205      	107.071526     	106.42202      	107.92825      	106.678635     	106.9108       	107.32404      	106.734085     	107.093666     	106.6051       	106.85225      	106.63373      	106.84397      	106.95577      	106.61537      	107.63037      	107.03764      	107.24355      	107.45448      	106.28914      	106.46744      	107.12234      	106.58679      	107.28763      	105.86391      	106.79859      	107.5742       	107.250145     	107.64995      	107.75617      	107.113014     	107.59427      	107.74182      	107.82146      	107.40851      	107.125496     	107.39845      	107.39456      	106.923546     	107.110886     	107.14309      	107.205414     	107.39508      	107.96972      	107.84481      	107.008095     	107.9635       	109.00189      	107.78017      	110.36719      	109.720055     	
105.73504      	106.78244      	106.28465      	106.79318      	106.73469      	106.85677      	107.23738      	107.1187       	106.77354      	106.58316      	106.29304      	106.89501      	107.189896     	106.91987      	107.44433      	107.21137      	106.63657      	107.07773      	106.92404      	106.66414      	107.15803      	106.78999      	106.90412      	107.37305      	107.13447      	106.441345     	107.30502      	107.528046     	106.98743      	106.93654      	107.58124      	107.73253      	107.30905      	107.20772      	107.161545     	107.635155     	107.0972       	106.94183      	107.82657      	106.85068      	107.49384      	106.39058      	106.88477      	106.43075      	107.336685     	107.13005      	107.12415      	107.201096     	106.95387      	106.495674     	107.3326       	107.3022       	107.17857      	107.21038      	107.06663      	107.10174      	107.217636     	107.30808      	107.05206      	106.94436      	107.16664      	106.95261      	106.64283      	106.75498      	107.22209      	106.94411      	106.805916     	106.73331      	106.77991      	107.167076     	106.372406     	106.07036      	106.078186     	106.63981      	106.426094     	107.050804     	107.04455      	106.800705     	106.6345       	106.58036      	106.89056      	106.7801       	106.14801      	106.15178      	106.37117      	106.818535     	107.050026     	106.21367      	107.85797      	108.426346     	108.05357      	108.42593      	107.53175      	108.19849      	108.48441      	108.22258      	109.11511      	110.659874     	112.88907      	111.931274     	
106.62291      	106.994        	106.77188      	106.87667      	107.380104     	107.58473      	107.47308      	107.2249       	107.413864     	107.15197      	107.16446      	107.460014     	107.717125     	108.12167      	107.670555     	107.60019      	107.43872      	107.94972      	107.57619      	107.77642      	107.87346      	107.80766      	107.267365     	107.63241      	107.47464      	107.38654      	107.284645     	107.511765     	107.34608      	107.28092      	107.38436      	107.69945      	107.59538      	107.64737      	107.37046      	107.569824     	107.37849      	107.492546     	108.35457      	108.073235     	107.77581      	107.32608      	107.190895     	107.283195     	107.331215     	107.708916     	108.20878      	107.54013      	107.36659      	108.56382      	107.67727      	107.55551      	107.11483      	107.432625     	107.996414     	107.64514      	107.73164      	107.18462      	107.76872      	107.21561      	107.86546      	107.66055      	107.35647      	107.28059      	108.2621       	107.83093      	107.919266     	108.196014     	108.41961      	108.302475     	108.617455     	110.247        	105.67714      	102.42431      	101.58616      	103.71507      	105.07016      	107.32156      	107.54095      	108.114204     	107.25829      	107.32992      	106.6688       	106.93564      	107.493706     	107.60714      	106.84789      	107.636154     	107.75832      	107.68462      	107.93502      	107.1344       	107.313805     	108.10797      	107.77493      	108.382355     	108.50533      	107.88977      	110.53243      	111.41241      	
106.03154      	106.36059      	106.44647      	106.41127      	106.33506      	106.29429      	105.957825     	106.00433      	106.05701      	106.03545      	105.67067      	105.176575     	105.613815     	107.22445      	107.4018       	107.00923      	107.37193      	106.945915     	106.837845     	107.19212      	107.81461      	107.5732       	107.0042       	107.46429      	108.13143      	107.155945     	107.04686      	107.68358      	107.80521      	107.65992      	107.38585      	107.55095      	107.59699      	107.497894     	107.1431       	107.40078      	107.646736     	107.96576      	108.205315     	108.20364      	107.804016     	107.29488      	106.925415     	106.62418      	107.48092      	107.20489      	107.446205     	107.84164      	107.24542      	107.07914      	107.26025      	107.63512      	107.489265     	107.17487      	107.55884      	107.433624     	107.33963      	107.04364      	107.11784      	106.930786     	106.865005     	107.565605     	107.1784       	107.15783      	107.51786      	110.13477      	106.00597      	101.0415       	103.90506      	100.1392       	96.97867       	96.878174      	92.74819       	92.64885       	91.29811       	93.149185      	93.049255      	97.15947       	106.86291      	108.606255     	108.05794      	108.03824      	108.78737      	108.55824      	108.45462      	108.72503      	108.85973      	108.62281      	108.173355     	109.686615     	108.63552      	108.873344     	108.34674      	109.157104     	109.37232      	109.53681      	109.599525     	110.107895     	112.430725     	112.74346      	
107.08039      	107.582405     	106.95589      	107.10177      	106.82855      	107.30392      	106.912994     	107.37612      	107.22577      	106.60545      	106.71631      	106.91298      	106.61723      	106.90109      	106.96199      	107.49083      	107.4476       	107.76748      	107.22874      	108.0747       	108.05175      	107.47653      	107.94117      	106.97124      	107.4831       	107.48795      	106.763794     	107.24755      	107.519485     	107.714584     	107.6136       	107.00685      	107.270485     	107.3153       	107.732285     	107.09975      	107.89675      	107.40466      	107.30821      	108.05418      	107.32516      	107.29292      	107.2073       	106.564316     	106.58095      	106.47187      	107.2618       	107.262375     	106.318054     	107.27581      	107.17415      	106.49454      	107.07994      	107.58629      	106.13785      	106.52306      	105.6649       	106.27664      	106.36268      	106.80859      	106.74172      	106.57352      	108.0619       	107.1899       	104.17978      	101.188774     	96.08041       	94.23974       	94.25011       	92.67601       	92.124         	92.34002       	92.217354      	92.4279        	92.06411       	91.343575      	90.337906      	90.30403       	103.84253      	108.1342       	108.42861      	108.426094     	108.38632      	108.49621      	108.69541      	108.49358      	108.924515     	108.328896     	108.26497      	108.57246      	107.94394      	108.28276      	108.25658      	108.65489      	108.93446      	109.40083      	109.23453      	109.423744     	110.47173      	111.87848      	
105.925865     	106.19122      	105.863785     	105.75117      	106.08074      	105.84939      	106.290634     	105.48196      	105.41426      	105.45714      	105.923164     	105.59361      	105.83149      	106.63214      	105.366295     	106.37239      	105.77291      	105.72719      	106.17433      	106.51239      	106.20504      	105.9697       	106.63461      	105.92662      	106.23169      	105.74965      	105.82691      	105.61052      	105.92403      	106.07456      	105.76293      	105.11749      	105.58526      	106.240265     	106.8484       	105.85649      	105.79355      	105.70803      	105.65565      	105.89846      	104.652725     	106.38238      	106.19921      	106.14466      	106.16739      	106.99571      	105.80327      	105.84753      	105.836006     	107.11974      	106.172485     	105.79242      	105.579384     	109.00062      	107.30358      	105.65507      	106.121475     	106.74157      	110.08236      	102.569565     	99.8924        	101.69752      	97.65347       	95.46692       	93.496284      	92.97763       	92.52807       	92.4101        	93.10784       	93.07629       	92.88159       	93.57582       	93.19631       	94.30524       	93.183586      	91.97914       	93.09578       	94.6574        	100.361786     	108.280075     	108.10893      	108.27377      	107.48369      	107.94457      	108.24162      	107.47657      	107.9448       	107.353165     	108.44348      	107.729675     	107.828156     	108.38143      	108.229744     	107.88713      	108.481575     	108.28051      	108.04131      	108.917015     	109.07843      	109.414536     	
106.75612      	106.457855     	106.85612      	107.00995      	107.13997      	107.13531      	106.91327      	106.43821      	107.3029       	105.993416     	107.12832      	106.56563      	106.61094      	107.17305      	107.425156     	107.059525     	107.4648       	107.03813      	107.4142       	107.3756       	107.5418       	107.102776     	106.96539      	106.81643      	107.073616     	107.040436     	106.97185      	106.94355      	107.4084       	106.97388      	107.17565      	106.74485      	107.18106      	107.04417      	106.93584      	106.37888      	106.69447      	106.96796      	106.01051      	106.65999      	106.618        	106.476204     	106.33263      	106.13807      	106.49436      	106.19848      	106.24406      	106.0409       	106.25202      	106.4966       	105.53683      	105.831825     	105.04213      	109.896645     	105.44419      	102.81088      	98.7689        	95.38055       	96.62938       	94.305405      	93.638016      	93.19786       	92.62352       	92.64325       	93.49238       	93.0153        	93.425385      	93.71675       	94.10946       	94.10251       	94.12301       	94.606804      	94.50501       	94.549576      	94.8926        	93.7043        	91.66937       	93.961044      	97.5622        	106.594345     	108.248825     	107.94349      	108.43703      	108.17152      	107.914604     	108.33871      	107.70172      	108.64         	109.154976     	108.476685     	108.911545     	108.90538      	109.48035      	109.24667      	109.28989      	109.491234     	110.033195     	110.738174     	111.22611      	110.30426      	
107.71575      	107.61495      	106.80998      	106.75883      	106.99609      	106.841866     	107.18773      	106.812996     	107.081116     	106.843925     	106.99989      	106.40703      	106.686676     	107.1751       	107.51142      	107.01134      	107.12667      	106.56165      	107.21415      	106.95576      	106.46306      	106.82078      	107.27428      	107.06396      	107.126335     	107.09819      	107.40185      	107.19336      	106.99365      	107.250336     	107.32252      	107.56369      	106.65995      	106.65758      	107.092606     	106.19864      	107.44296      	106.5326       	107.15567      	107.16896      	106.840645     	106.32956      	105.92146      	106.2207       	106.35411      	106.939766     	106.319725     	106.75003      	106.83507      	110.82617      	104.52926      	102.69696      	98.35884       	96.09638       	95.05554       	94.3753        	92.54775       	91.92912       	91.95588       	92.44036       	92.47973       	92.67468       	92.76051       	93.081726      	93.22196       	93.096664      	93.74046       	93.37409       	93.82844       	93.84015       	93.68316       	94.072655      	94.72741       	94.26902       	93.71057       	93.405106      	92.70546       	95.61496       	97.089035      	102.02945      	106.7609       	106.36806      	107.08842      	106.44647      	106.35911      	106.49044      	106.798676     	106.29804      	106.88809      	106.6348       	106.963615     	108.0165       	106.7799       	107.29657      	107.33         	106.81074      	107.680756     	107.74067      	107.4859       	108.82566      	
106.89667      	107.397736     	107.14116      	107.07508      	106.45351      	106.87594      	107.409836     	107.361        	106.88535      	106.75886      	106.82773      	106.76547      	106.78785      	106.7066       	106.21984      	106.37577      	106.8879       	107.07274      	106.695274     	106.42565      	106.718735     	106.823746     	107.37964      	106.91728      	107.384605     	106.7566       	107.212204     	107.17578      	106.43582      	107.38886      	106.92114      	106.680725     	106.72917      	106.593124     	107.25321      	106.65724      	106.71776      	106.7961       	106.585075     	106.72879      	107.12834      	107.07418      	107.28089      	106.16356      	107.21282      	110.878654     	102.13614      	97.86308       	99.46661       	97.32905       	95.855515      	94.44271       	93.337685      	92.17268       	92.67207       	93.197815      	92.426186      	93.262314      	93.18535       	93.71041       	93.55189       	93.799095      	94.21391       	94.04844       	94.21433       	94.729095      	94.74274       	94.28644       	94.66156       	95.51852       	95.10576       	95.068085      	96.657         	94.06661       	94.07233       	94.29449       	93.57901       	94.02948       	97.70511       	102.2679       	107.76691      	107.29694      	107.78219      	107.942665     	107.91453      	107.84075      	108.1197       	107.868996     	107.8983       	107.09783      	107.64493      	107.18491      	108.05436      	108.50121      	108.407745     	108.75685      	109.19175      	109.83453      	110.599655     	109.71568      	
105.34686      	106.02914      	106.30276      	106.64477      	106.50917      	105.84178      	106.34158      	106.08324      	105.79494      	105.652626     	106.14716      	105.87655      	105.4939       	105.42935      	106.477295     	106.90908      	106.838875     	106.620766     	106.956154     	105.84583      	106.44831      	106.860405     	106.265305     	106.44949      	106.264015     	106.81366      	106.27008      	106.11833      	106.12956      	105.91941      	106.57332      	107.10184      	106.376465     	106.84156      	106.45058      	105.784874     	106.10407      	107.00022      	106.56297      	106.661934     	107.590256     	111.03673      	107.140785     	101.42737      	99.21577       	96.52203       	93.28354       	92.502464      	92.81923       	92.63101       	92.493225      	92.24172       	92.922935      	93.13409       	93.13456       	93.61483       	93.21322       	93.91517       	93.87415       	93.90149       	94.06772       	93.83638       	94.36108       	94.47758       	95.19682       	94.8358        	94.95604       	94.93635       	95.32955       	95.93378       	95.036766      	95.286934      	94.47522       	93.95054       	95.17521       	93.357025      	93.08771       	92.82465       	92.697784      	100.77738      	106.879326     	107.57706      	107.13574      	108.05457      	107.830246     	108.31024      	107.958435     	108.0321       	107.79298      	108.12228      	108.27261      	108.627594     	108.3714       	108.64175      	108.73767      	108.84537      	109.40068      	109.83835      	110.02142      	109.022224     	
106.22722      	106.338875     	106.06399      	106.113525     	106.30015      	106.9241       	106.40201      	106.80981      	106.69908      	106.56458      	106.43786      	106.21681      	106.77604      	106.64074      	107.40876      	106.50774      	106.68364      	107.22876      	107.22325      	106.40587      	105.904045     	106.46374      	106.009636     	106.00657      	106.120094     	106.08888      	106.040016     	106.49165      	104.66975      	107.52715      	107.278404     	106.937195     	107.14616      	106.473976     	106.88646      	106.75499      	107.14915      	106.583855     	107.3724       	107.720894     	110.93041      	103.16995      	96.71997       	92.49435       	91.60842       	91.4521        	92.079384      	92.55797       	92.46571       	92.803764      	93.30432       	93.10382       	93.3604        	93.32935       	93.25908       	93.82628       	93.7027        	94.0607        	93.7743        	94.15904       	94.77449       	94.31764       	94.78726       	95.018654      	94.34743       	94.80786       	95.195015      	94.13705       	95.036125      	95.22453       	95.169235      	94.597595      	93.82506       	94.19047       	94.8764        	93.07258       	93.57314       	93.443344      	93.34047       	98.55365       	106.49991      	107.6986       	107.58316      	107.33583      	107.67166      	107.29648      	107.08468      	107.882515     	107.21957      	107.87466      	108.081894     	107.05199      	107.85712      	107.846375     	107.92553      	107.935974     	108.00009      	109.04386      	110.01723      	108.77354      	
107.03623      	107.19581      	106.97194      	106.55055      	106.60376      	107.24703      	106.47256      	106.68806      	106.458405     	106.70186      	106.33232      	106.77055      	106.97198      	107.30999      	107.531166     	106.65973      	108.39557      	108.1501       	106.60412      	105.68384      	107.58074      	107.492874     	107.51078      	107.81776      	107.31773      	108.16905      	107.67198      	107.2518       	107.629486     	107.63004      	107.65328      	107.2286       	107.75054      	107.47414      	107.477394     	108.1677       	108.18661      	108.4841       	108.45845      	110.77065      	103.31411      	97.613014      	94.43615       	93.05979       	92.07028       	92.93421       	93.12674       	93.930695      	93.574814      	93.78787       	94.25896       	94.25306       	94.62111       	94.35403       	95.08748       	94.775505      	94.99452       	95.084984      	95.623665      	95.60409       	95.28538       	95.5189        	96.03217       	95.64385       	95.69953       	95.93009       	95.94625       	96.338974      	95.916695      	95.78495       	96.28747       	95.76909       	95.66118       	95.646034      	95.530754      	94.22239       	94.384125      	93.74681       	93.8671        	99.393814      	105.32622      	107.879        	107.35435      	107.31991      	107.437706     	107.67206      	107.88954      	107.65733      	108.223656     	108.32315      	109.1459       	107.990295     	108.40173      	108.69006      	108.7936       	108.993004     	109.006966     	109.32348      	110.286835     	109.38682      	
107.17894      	107.29345      	107.02311      	106.755745     	106.68536      	106.7189       	106.70727      	106.54302      	106.53286      	107.15464      	105.99345      	107.04594      	106.33807      	106.884224     	106.43047      	106.92956      	107.53055      	108.08532      	106.095406     	106.94607      	106.3773       	106.18642      	106.64427      	106.67494      	106.95696      	106.44793      	106.94644      	107.37104      	105.99867      	106.30552      	107.05922      	106.59724      	106.43042      	106.6307       	106.42435      	106.79506      	106.06452      	106.74334      	105.380424     	110.76709      	101.97767      	96.922844      	94.441216      	91.72016       	90.850945      	92.297005      	92.495705      	93.848366      	93.74594       	94.40384       	94.67514       	94.30169       	94.55003       	94.35636       	95.21552       	95.05798       	94.28217       	94.669426      	94.80546       	94.73076       	95.18993       	95.1312        	95.23329       	95.264854      	95.02325       	95.53794       	95.27783       	94.44312       	95.47152       	96.024376      	95.468315      	95.855064      	95.7728        	94.94162       	95.07476       	94.45535       	94.14677       	94.20759       	94.168846      	94.28621       	104.07154      	107.17292      	108.21337      	107.96385      	107.35998      	107.63949      	107.60637      	107.87415      	107.45126      	108.065636     	107.75466      	108.72929      	108.574905     	109.03954      	107.89851      	110.119385     	109.05665      	110.31334      	112.74107      	112.04897      	
106.47911      	106.130585     	105.917305     	105.74959      	105.83875      	106.34755      	105.871346     	106.29678      	106.29115      	106.05975      	106.08934      	105.59489      	105.81378      	105.736885     	106.07009      	105.90233      	106.81242      	106.71026      	105.83467      	106.358246     	106.44809      	107.01179      	106.19414      	106.3332       	106.87372      	106.19995      	106.90844      	106.42519      	105.48291      	107.207436     	107.40589      	107.30684      	106.92482      	107.38001      	107.759895     	107.50572      	107.41895      	107.34905      	108.90563      	112.76         	104.97726      	98.682144      	97.03777       	94.8876        	92.4938        	93.37022       	93.02731       	94.96327       	94.46477       	95.77502       	95.27367       	95.30613       	95.00865       	98.3807        	96.73728       	94.452675      	94.89179       	95.587585      	96.063         	95.79626       	96.040634      	96.16457       	95.51767       	95.843414      	96.46156       	96.77721       	95.93086       	95.933846      	95.891525      	96.82017       	95.4902        	96.46276       	96.33285       	96.07304       	95.617874      	94.87571       	94.79632       	93.880264      	93.75469       	94.06406       	102.54069      	107.645836     	106.6815       	106.96404      	107.149796     	106.84555      	106.33747      	106.854744     	107.54746      	107.02883      	107.361786     	108.258        	105.725266     	106.913574     	107.555        	107.88044      	108.458954     	108.45198      	108.12157      	108.58042      	
107.17146      	107.516396     	107.33409      	108.026764     	107.93153      	107.46358      	107.7734       	107.47617      	107.52448      	106.989365     	107.54475      	106.795876     	107.35397      	106.73548      	107.74142      	107.831085     	107.531204     	107.35547      	107.64576      	107.94037      	107.617714     	108.25959      	107.49323      	107.573425     	108.291275     	107.50031      	107.373        	106.888756     	107.47292      	106.82621      	108.33864      	107.34792      	107.15498      	107.63108      	108.04609      	108.06067      	107.72952      	109.017265     	109.4179       	111.51037      	110.62277      	102.60987      	98.729744      	97.22217       	94.50936       	93.06305       	93.45416       	93.6511        	94.71986       	95.06567       	94.84774       	95.1349        	94.97318       	94.91171       	94.71921       	94.83442       	95.136505      	94.94701       	95.950325      	95.02199       	95.48619       	95.55661       	95.286705      	95.77276       	96.53284       	96.51521       	94.16258       	95.33375       	96.117065      	95.53854       	95.72295       	95.45215       	94.93758       	94.89628       	94.51968       	94.52768       	93.37084       	92.227196      	92.798706      	91.85486       	97.112816      	105.63625      	106.585655     	106.830574     	106.08396      	106.36569      	106.4257       	106.416725     	107.469666     	106.98359      	106.14035      	106.670715     	107.762695     	106.85389      	107.14194      	107.828224     	107.69474      	107.85791      	107.25204      	107.89592      	
107.041985     	106.5775       	106.74059      	106.70574      	107.13445      	107.54225      	107.10339      	106.69324      	107.67676      	107.20061      	106.78895      	106.82731      	107.561714     	107.075096     	106.729546     	109.10342      	107.35511      	107.364136     	107.4161       	107.63992      	107.25535      	106.612946     	108.16161      	106.57581      	107.32361      	106.50955      	106.89469      	106.63749      	107.14615      	107.83481      	107.055214     	107.01016      	106.74041      	108.125755     	107.84855      	107.4261       	107.469444     	107.94867      	107.50388      	108.557396     	111.91872      	104.792885     	100.21953      	98.170654      	95.567726      	94.61282       	94.86941       	95.34595       	95.59593       	95.62815       	96.104225      	96.91239       	96.35774       	96.778885      	96.154724      	96.02668       	96.210526      	96.33673       	96.969055      	95.82041       	96.10447       	96.00536       	96.27033       	96.25398       	97.30904       	95.91741       	95.03732       	96.55764       	97.08349       	96.964035      	96.833824      	96.99687       	96.27257       	96.352         	95.391785      	95.576195      	93.89552       	93.762985      	94.28825       	93.18838       	96.714165      	104.76109      	107.52398      	107.94428      	107.72625      	108.00391      	108.44366      	107.78283      	108.11654      	107.878395     	108.382065     	107.95388      	108.21917      	108.37675      	109.12897      	108.48993      	108.11901      	111.089806     	111.53821      	109.37172      	
106.51167      	105.751816     	106.6637       	106.05479      	106.64332      	106.13488      	106.44986      	106.1224       	106.84602      	107.043625     	107.19332      	107.986664     	105.87362      	99.6408        	99.15339       	100.88758      	103.65941      	105.66275      	106.730934     	105.13584      	105.374985     	106.32101      	105.5767       	104.90259      	106.08797      	105.96877      	105.98487      	104.922134     	106.34199      	105.89357      	103.77207      	106.0884       	105.75169      	106.15443      	106.01933      	106.099174     	105.67508      	106.25861      	105.36508      	106.55674      	110.87193      	105.02228      	99.07484       	97.69196       	96.39037       	92.790596      	94.32195       	94.72251       	94.929115      	95.10234       	95.13136       	96.47564       	94.37732       	95.74035       	95.537155      	95.32066       	95.84841       	95.14669       	95.33695       	95.57117       	95.34801       	95.132774      	96.08381       	95.17151       	95.04134       	95.54032       	95.70852       	95.25457       	95.71773       	96.200195      	96.305435      	95.417206      	95.403015      	95.17464       	95.29076       	94.70021       	93.57455       	93.81872       	92.4837        	92.42247       	96.21223       	102.977585     	106.82233      	107.05344      	107.542114     	107.16794      	107.24612      	107.56145      	107.23682      	107.687126     	107.69954      	107.6765       	107.32983      	107.7971       	107.16078      	107.48899      	108.20565      	108.563416     	107.87043      	108.10626      	
