# www.neaspec.com
# Scan:	 	Whitelight Imaging
# Project:	 	20251007_PS
# Description:	 	
# Date:	 	10/07/2025 16:01:01
# Scanner Center Position (X, Y):	[µm]	49.66	48.17	 
# Rotation:	[°]	0	 	 
# Scan Area (X, Y, Z):	[µm]	5.000	5.000	0.000
# Pixel Area (X, Y, Z):	[px]	100	100	1
# Interferometer Center/Distance:	[µm]	546.322	0.000	 
# Averaging:	 	1	 	 
# Integration time:	[ms]	5	 	 
# Wavenumber Scaling:	 	1.000000	 	 
# Laser Source:	 	4.5-15 µm nano-FTIR laser
# Detector:	 	R
# Target Wavelength:	[µm]	7.502	 	 
# Demodulation Mode:	 	Fourier
# Tip Frequency:	[Hz]	238,800.109	 	 
# Tip Amplitude:	[mV]	13.000	 	 
# Tapping Amplitude:	[nm]	74.298	 	 
# Modulation Frequency:	[Hz]	0.000	 	 
# Modulation Amplitude:	[mV]	0.000	 	 
# Modulation Offset:	[mV]	0.000	 	 
# Setpoint:	[%]	79.75	 	 
# Regulator (P, I, D):	 	4.206850	8.625812	1.000000
# Tip Potential:	[mV]	0.000	 	 
# M1A Scaling:	[nm/V]	0.426	 	 
# M1A Cantilever Factor:	 	1,000	 	 
# Q-Factor:	 	452.3	 	 
# Version:	 	2.1.11536.0
219.19374      	219.22035      	219.22438      	219.22063      	219.18639      	219.19919      	219.20117      	219.21703      	219.21658      	219.21365      	219.2086       	219.21313      	219.21574      	219.20766      	219.22072      	219.19933      	219.18646      	219.20515      	219.20961      	219.19225      	219.17303      	219.18431      	219.17043      	219.18625      	219.15855      	219.1636       	219.17459      	219.03938      	219.11693      	219.06924      	219.0899       	219.06874      	219.07553      	219.07909      	219.10728      	219.10222      	219.07318      	219.08698      	219.08617      	219.11334      	219.0922       	219.06635      	219.09576      	219.09415      	219.07997      	219.0847       	219.04892      	219.06566      	219.0748       	219.05745      	219.07268      	219.05426      	219.05048      	219.05382      	219.04102      	219.03621      	219.05772      	219.01547      	218.90932      	219.08888      	219.08675      	219.12804      	219.07985      	219.0899       	219.07852      	219.10007      	219.10074      	219.113        	219.09692      	219.11073      	219.06699      	219.08286      	219.06535      	219.0757       	219.05653      	219.0572       	219.04929      	219.03827      	219.03372      	219.04654      	219.0444       	219.02773      	219.04984      	219.02843      	219.04169      	219.00414      	219.02953      	219.00214      	218.9851       	218.86774      	218.89212      	218.94359      	218.96014      	218.98372      	218.96011      	218.93695      	218.92546      	218.96165      	218.95302      	218.99266      	
218.92435      	218.9284       	218.93651      	218.93219      	218.91742      	218.94728      	218.93398      	218.92058      	218.94032      	218.91885      	218.91716      	218.94772      	218.95036      	218.94223      	218.90192      	218.90883      	218.911        	218.93655      	218.94032      	218.93132      	218.9389       	218.89299      	218.94734      	218.94264      	218.90144      	218.90921      	218.95412      	218.88208      	218.94955      	218.88052      	218.86694      	218.89456      	218.86159      	218.87477      	218.86884      	218.88629      	218.92027      	218.90445      	218.88547      	218.85477      	218.88368      	218.8856       	218.88634      	218.9086       	218.89984      	218.87462      	218.88231      	218.9031       	218.91632      	218.89307      	218.91103      	218.89821      	218.90553      	218.90968      	218.86949      	218.87541      	218.87866      	218.83194      	218.72739      	218.84106      	218.8754       	218.91406      	218.91937      	218.91124      	218.88052      	218.88327      	218.89584      	218.88956      	218.90526      	218.88535      	218.89236      	218.8872       	218.89516      	218.9319       	218.91031      	218.90227      	218.91803      	218.88214      	218.91235      	218.90616      	218.88454      	218.89436      	218.88687      	218.88777      	218.89064      	218.92294      	218.8848       	218.93065      	218.99167      	218.86884      	218.83885      	218.80592      	218.74167      	218.85019      	218.87598      	218.87872      	218.85793      	218.85864      	218.8629       	218.86523      	
218.78104      	218.77847      	218.77931      	218.79245      	218.78001      	218.77908      	218.77899      	218.77321      	218.73727      	218.75189      	218.77588      	218.78058      	218.77458      	218.79964      	218.751        	218.77713      	218.76752      	218.72664      	218.7599       	218.74232      	218.7591       	218.73392      	218.73471      	218.73961      	218.71945      	218.74335      	218.71535      	218.63284      	218.74269      	218.67982      	218.72072      	218.70369      	218.70036      	218.70961      	218.68414      	218.71292      	218.69392      	218.71646      	218.70062      	218.70204      	218.71475      	218.66241      	218.67694      	218.65472      	218.64774      	218.66081      	218.65689      	218.65804      	218.64757      	218.63477      	218.67325      	218.64548      	218.66994      	218.68698      	218.67113      	218.68056      	218.69241      	218.59286      	218.52347      	218.64828      	218.65862      	218.70709      	218.68498      	218.66458      	218.67511      	218.66054      	218.65541      	218.7066       	218.67311      	218.6904       	218.71841      	218.66074      	218.73875      	218.6968       	218.67863      	218.67749      	218.65877      	218.65471      	218.6878       	218.6378       	218.65578      	218.64996      	218.54312      	218.61913      	218.63588      	218.71039      	218.61726      	218.64096      	218.64194      	218.5861       	218.51782      	218.46567      	218.46631      	218.46585      	218.46718      	218.54851      	218.56412      	218.57933      	218.56519      	218.54979      	
218.47316      	218.46852      	218.47638      	218.48392      	218.4761       	218.48485      	218.47241      	218.45575      	218.46068      	218.44528      	218.45978      	218.43929      	218.42967      	218.43707      	218.40012      	218.43123      	218.41446      	218.44057      	218.44794      	218.42548      	218.4352       	218.44583      	218.42026      	218.41241      	218.43427      	218.40974      	218.29208      	218.29695      	218.44107      	218.35509      	218.32697      	218.35721      	218.35463      	218.30116      	218.35788      	218.38007      	218.41745      	218.34727      	218.32529      	218.3146       	218.3318       	218.33522      	218.33063      	218.38304      	218.36197      	218.32585      	218.31169      	218.3278       	218.3215       	218.35182      	218.348        	218.36392      	218.32477      	218.32306      	218.31491      	218.30217      	218.30759      	218.2985       	218.13794      	218.2076       	218.3093       	218.34195      	218.31323      	218.34056      	218.29214      	218.3255       	218.2949       	218.3163       	218.30869      	218.30759      	218.30954      	218.32054      	218.30202      	218.30075      	218.34398      	218.30658      	218.28062      	218.29193      	218.30739      	218.28185      	218.26369      	218.25778      	218.27536      	218.28468      	218.3282       	218.30272      	218.2176       	218.21034      	218.16913      	218.18996      	218.11575      	218.1017       	218.1046       	218.08737      	218.0709       	218.04701      	218.03006      	218.1774       	218.23521      	218.21027      	
217.96217      	217.96967      	217.95726      	217.96303      	217.95798      	217.97484      	217.93579      	217.96677      	217.94518      	217.94992      	217.95432      	217.942        	217.98024      	217.96877      	217.97726      	217.95473      	217.97252      	217.96053      	217.94312      	217.92691      	217.95761      	217.93411      	217.93288      	217.93587      	217.92722      	217.94687      	217.9748       	217.88795      	217.91122      	217.88843      	217.9165       	217.91434      	217.88919      	217.88925      	217.91527      	217.89334      	217.87148      	217.90071      	217.89618      	217.87337      	217.88809      	217.87343      	217.8937       	217.86024      	217.82199      	217.84828      	217.8283       	217.85284      	217.82985      	217.8282       	217.8467       	217.84618      	217.81386      	217.78947      	217.83902      	217.85605      	217.85023      	217.83932      	217.70636      	217.74202      	217.85042      	217.86517      	217.86882      	217.88048      	217.86859      	217.86848      	217.85194      	217.84914      	217.85072      	217.86627      	217.84915      	217.85333      	217.8412       	217.86115      	217.83485      	217.8642       	217.86119      	217.85074      	217.8919       	217.82916      	217.8359       	217.8506       	217.87492      	217.9099       	217.95834      	217.85825      	217.74628      	217.7952       	217.79169      	217.73325      	217.7295       	217.7132       	217.66957      	217.65912      	217.65869      	217.64255      	217.6001       	217.5913       	217.65245      	217.5859       	
217.74008      	217.72542      	217.70917      	217.71042      	217.7132       	217.7169       	217.72626      	217.72128      	217.67947      	217.6655       	217.66464      	217.68002      	217.6754       	217.70442      	217.69969      	217.66705      	217.67535      	217.64812      	217.64583      	217.65103      	217.641        	217.57965      	217.59561      	217.59064      	217.59435      	217.62836      	217.61862      	217.47313      	217.56723      	217.54646      	217.58067      	217.60179      	217.61182      	217.54501      	217.56064      	217.58023      	217.52759      	217.5896       	217.61394      	217.62988      	217.62549      	217.63925      	217.60101      	217.5976       	217.59822      	217.58626      	217.55217      	217.54327      	217.57893      	217.55626      	217.61687      	217.57722      	217.512        	217.58371      	217.5198       	217.61087      	217.5551       	217.48082      	217.46696      	217.5558       	217.6182       	217.66202      	217.6664       	217.64859      	217.6478       	217.62894      	217.65388      	217.65395      	217.63185      	217.62546      	217.68626      	217.66342      	217.65991      	217.63235      	217.6592       	217.64926      	217.63345      	217.59912      	217.64348      	217.6434       	217.6419       	217.64359      	217.7149       	217.69897      	217.70801      	217.63654      	217.59967      	217.49446      	217.4964       	217.47679      	217.49118      	217.458        	217.43451      	217.42155      	217.424        	217.40501      	217.44043      	217.41383      	217.56041      	217.67209      	
217.58469      	217.58415      	217.60376      	217.61517      	217.5892       	217.57828      	217.5746       	217.57814      	217.59386      	217.5777       	217.56917      	217.57718      	217.61182      	217.58766      	217.58084      	217.57698      	217.6046       	217.59186      	217.58032      	217.59479      	217.5662       	217.57095      	217.61331      	217.57008      	217.56537      	217.53166      	217.46007      	217.31381      	217.27823      	217.35263      	217.34828      	217.35562      	217.37434      	217.27051      	217.27597      	217.29587      	217.28726      	217.22363      	217.24672      	217.27017      	217.23297      	217.24391      	217.27417      	217.26454      	217.24876      	217.27809      	217.27501      	217.40585      	217.33788      	217.3658       	217.30095      	217.3306       	217.45041      	217.49501      	217.5144       	217.3785       	217.40852      	217.4764       	217.52167      	217.45882      	217.48323      	217.48033      	217.50565      	217.51756      	217.4969       	217.49452      	217.44005      	217.47849      	217.50774      	217.48224      	217.50099      	217.45906      	217.47461      	217.49806      	217.46983      	217.47656      	217.49103      	217.46655      	217.44135      	217.47386      	217.47682      	217.56252      	217.61443      	217.60463      	217.5548       	217.50832      	217.46588      	217.40031      	217.37877      	217.35863      	217.33861      	217.37518      	217.33905      	217.32277      	217.2643       	217.27034      	217.30157      	217.21614      	217.32382      	217.47519      	
217.55656      	217.55258      	217.5473       	217.56342      	217.57903      	217.56175      	217.5718       	217.5456       	217.53607      	217.56134      	217.57326      	217.53578      	217.54768      	217.55664      	217.54117      	217.54208      	217.55078      	217.53752      	217.54137      	217.5804       	217.56467      	217.56131      	217.60231      	217.56644      	217.55484      	217.56833      	217.57265      	217.60506      	217.5784       	217.598        	217.60081      	217.60432      	217.57928      	217.5624       	217.5994       	217.58545      	217.59525      	217.58438      	217.59491      	217.58688      	217.5764       	217.5703       	217.58473      	217.57805      	217.56412      	217.60245      	217.60416      	217.62315      	217.61136      	217.60385      	217.60423      	217.61542      	217.62598      	217.59886      	217.6099       	217.59947      	217.61969      	217.62973      	217.62875      	217.65541      	217.62082      	217.6078       	217.6295       	217.66852      	217.61351      	217.61847      	217.65445      	217.60066      	217.62761      	217.62053      	217.62428      	217.65729      	217.6107       	217.59122      	217.61841      	217.6232       	217.63487      	217.62253      	217.5918       	217.6084       	217.63525      	217.63385      	217.79189      	217.66675      	217.60439      	217.54178      	217.53575      	217.39296      	217.40399      	217.45169      	217.47862      	217.49957      	217.51581      	217.42247      	217.37772      	217.37224      	217.39069      	217.32697      	217.44684      	217.6839       	
218.13565      	218.15872      	218.17145      	218.11841      	218.11618      	218.09889      	218.13878      	218.10384      	218.10748      	218.15565      	218.11304      	218.13246      	218.15251      	218.14157      	218.15355      	218.19627      	218.14484      	218.20209      	218.1626       	218.18939      	218.19705      	218.21988      	218.21164      	218.20074      	218.1974       	218.17603      	218.15584      	218.12943      	218.14119      	218.1511       	218.16008      	218.15242      	218.1493       	218.18448      	218.15642      	218.15468      	218.1681       	218.19884      	218.19849      	218.18646      	218.17389      	218.18297      	218.17581      	218.14725      	218.13849      	218.24219      	218.1656       	218.19556      	218.20192      	218.24632      	218.2475       	218.22446      	218.21167      	218.23032      	218.2186       	218.2456       	218.24686      	218.22192      	218.25526      	218.23802      	218.2356       	218.22902      	218.2408       	218.2304       	218.22502      	218.24828      	218.25787      	218.27881      	218.28734      	218.31656      	218.2526       	218.28253      	218.30186      	218.3409       	218.34131      	218.35306      	218.3545       	218.34073      	218.35066      	218.39307      	218.26723      	218.36241      	218.11562      	218.26114      	218.25829      	218.15395      	218.09033      	218.11304      	218.12486      	218.18353      	218.21608      	218.1902       	218.24005      	218.18544      	218.19496      	218.14854      	218.13321      	218.14111      	218.35133      	218.4362       	
218.83171      	218.83719      	218.85898      	218.85808      	218.87315      	218.88664      	218.85397      	218.86472      	218.89584      	218.92882      	218.92506      	218.92603      	218.90775      	218.9409       	218.93825      	218.89879      	218.93172      	218.94846      	218.96193      	219.01808      	218.97116      	218.95859      	218.96173      	218.96164      	218.9369       	218.92963      	218.96378      	218.93036      	218.94138      	218.92389      	218.92592      	218.96251      	218.93976      	218.952        	218.97415      	218.96947      	218.96458      	218.96902      	218.98048      	218.99142      	219.00702      	219.02211      	219.0195       	219.03546      	219.01506      	219.01067      	218.98802      	219.01782      	219.02151      	219.02328      	219.1044       	219.06874      	219.06508      	219.09164      	219.10654      	219.10817      	219.12091      	219.11792      	219.11742      	219.13435      	219.13719      	219.13597      	219.10349      	219.12827      	219.108        	219.12817      	219.13528      	219.1494       	219.14923      	219.15964      	219.1641       	219.1491       	219.15186      	219.16269      	219.16132      	219.16986      	219.18365      	219.18163      	219.18376      	219.18594      	219.21198      	219.25652      	219.28012      	218.97073      	219.10483      	218.95972      	218.8725       	218.93341      	218.97455      	219.02643      	219.1101       	219.06297      	219.03369      	218.96881      	218.9609       	218.962        	218.88348      	218.83766      	219.07137      	219.18947      	
219.48456      	219.47845      	219.45973      	219.45657      	219.49013      	219.49564      	219.48         	219.50365      	219.50882      	219.48103      	219.4903       	219.49124      	219.4866       	219.49944      	219.56007      	219.54327      	219.53835      	219.55943      	219.57448      	219.56274      	219.56258      	219.55487      	219.54312      	219.57889      	219.55075      	219.55826      	219.55548      	219.54437      	219.60208      	219.54828      	219.56119      	219.56932      	219.55319      	219.55605      	219.54906      	219.58673      	219.5638       	219.58218      	219.60912      	219.56186      	219.5729       	219.57349      	219.5613       	219.59381      	219.59227      	219.57567      	219.58763      	219.5961       	219.62405      	219.62093      	219.58041      	219.60402      	219.60547      	219.5729       	219.58847      	219.61385      	219.60042      	219.6213       	219.60387      	219.59195      	219.62346      	219.65062      	219.61795      	219.65251      	219.60216      	219.64789      	219.62111      	219.6325       	219.62401      	219.62936      	219.66144      	219.68205      	219.66684      	219.6771       	219.65758      	219.65465      	219.65599      	219.65244      	219.66934      	219.64113      	219.70609      	219.66428      	219.81464      	219.68253      	219.59633      	219.5173       	219.52257      	219.49442      	219.46153      	219.45735      	219.53403      	219.49797      	219.45363      	219.43571      	219.405        	219.36737      	219.32602      	219.34608      	219.64227      	219.69385      	
219.75307      	219.66696      	219.7204       	219.74237      	219.72707      	219.7048       	219.67442      	219.69858      	219.71031      	219.70909      	219.69627      	219.7115       	219.72868      	219.68272      	219.71494      	219.71555      	219.72684      	219.73154      	219.67508      	219.6923       	219.71404      	219.69745      	219.69897      	219.70102      	219.68875      	219.64948      	219.65407      	219.63353      	219.60764      	219.6089       	219.60793      	219.64787      	219.64297      	219.64487      	219.66814      	219.64177      	219.67386      	219.68921      	219.62743      	219.64967      	219.63058      	219.64218      	219.65428      	219.6743       	219.64795      	219.59831      	219.64532      	219.63698      	219.6197       	219.62042      	219.60301      	219.61655      	219.59738      	219.61687      	219.64052      	219.62947      	219.65918      	219.61092      	219.64066      	219.63332      	219.62361      	219.6382       	219.58553      	219.6312       	219.59343      	219.61124      	219.62445      	219.61671      	219.61311      	219.61377      	219.5993       	219.60353      	219.58699      	219.60764      	219.62796      	219.61203      	219.60767      	219.62712      	219.64973      	219.65097      	219.6437       	219.6973       	219.7556       	219.79095      	219.68753      	219.59529      	219.53441      	219.49034      	219.47176      	219.43474      	219.46591      	219.46045      	219.42494      	219.4043       	219.36165      	219.27368      	219.21107      	219.41006      	219.5931       	219.53499      	
219.32202      	219.3201       	219.32106      	219.29343      	219.30125      	219.28212      	219.2645       	219.25717      	219.2601       	219.27675      	219.25983      	219.24358      	219.24413      	219.2582       	219.27301      	219.24625      	219.23654      	219.23868      	219.22325      	219.23535      	219.23712      	219.2363       	219.20149      	219.25003      	219.24356      	219.20029      	219.20316      	219.21379      	219.21178      	219.19911      	219.18704      	219.18489      	219.18948      	219.20995      	219.18227      	219.20749      	219.18533      	219.118        	219.10715      	219.12009      	219.0996       	219.13426      	219.15599      	219.11046      	219.11737      	219.15135      	219.13275      	219.17104      	219.15134      	219.14813      	219.13052      	219.13844      	219.13501      	219.14218      	219.12245      	219.1146       	219.10953      	219.10303      	219.09627      	219.09174      	219.10472      	219.0897       	219.11394      	219.06789      	219.0702       	219.06969      	219.08864      	219.09685      	219.07985      	219.06512      	219.09402      	219.08318      	219.07396      	219.11505      	219.09116      	219.11809      	219.08682      	219.08684      	219.09679      	219.0864       	219.06618      	219.10425      	219.19374      	219.2809       	219.22507      	218.99266      	218.96844      	218.96077      	218.98758      	218.96315      	218.99667      	218.92398      	218.91512      	218.92374      	218.87704      	218.76433      	218.79831      	218.98982      	219.06137      	219.05257      	
218.74742      	218.75441      	218.73161      	218.7654       	218.76418      	218.76163      	218.75243      	218.73337      	218.73277      	218.72363      	218.72316      	218.75319      	218.73013      	218.74113      	218.74472      	218.72458      	218.7455       	218.73944      	218.74756      	218.7368       	218.69263      	218.70285      	218.73831      	218.74763      	218.7389       	218.71854      	218.73209      	218.74724      	218.76642      	218.75381      	218.67398      	218.69588      	218.73056      	218.72586      	218.72688      	218.7066       	218.73016      	218.67593      	218.6909       	218.71689      	218.75018      	218.72949      	218.74167      	218.73314      	218.72949      	218.77097      	218.74086      	218.7255       	218.74933      	218.74733      	218.7241       	218.73416      	218.71777      	218.76326      	218.68123      	218.68236      	218.69743      	218.71031      	218.71819      	218.71584      	218.70589      	218.7169       	218.67804      	218.7019       	218.70782      	218.70367      	218.7204       	218.74         	218.67735      	218.69075      	218.68756      	218.67903      	218.71083      	218.74057      	218.71086      	218.73071      	218.7106       	218.71075      	218.7178       	218.73071      	218.75879      	218.74478      	218.7435       	218.83322      	218.91327      	218.7719       	218.68326      	218.64828      	218.6114       	218.59161      	218.54733      	218.6005       	218.60226      	218.57631      	218.50879      	218.4339       	218.62141      	218.6906       	218.71637      	218.75375      	
218.63835      	218.64265      	218.63364      	218.65828      	218.65424      	218.64772      	218.65292      	218.64108      	218.62497      	218.63577      	218.65555      	218.6213       	218.65427      	218.64821      	218.63914      	218.70027      	218.6824       	218.66054      	218.68887      	218.6757       	218.67557      	218.71669      	218.70888      	218.67567      	218.6957       	218.71584      	218.73651      	218.73045      	218.7344       	218.71864      	218.71834      	218.73137      	218.7379       	218.75095      	218.72626      	218.72598      	218.73044      	218.71861      	218.75319      	218.73428      	218.75162      	218.77579      	218.76018      	218.7543       	218.75206      	218.77086      	218.78444      	218.79884      	218.79904      	218.78575      	218.78394      	218.83072      	218.81705      	218.83548      	218.79263      	218.75674      	218.7669       	218.76677      	218.77257      	218.82024      	218.81512      	218.81381      	218.83072      	218.83234      	218.79489      	218.8102       	218.81647      	218.84         	218.83733      	218.8555       	218.89516      	218.89687      	218.88112      	218.85483      	218.86687      	218.85913      	218.85832      	218.86063      	218.84065      	218.86476      	218.87462      	218.85916      	218.87389      	218.89136      	218.96075      	219.00407      	218.93571      	218.92038      	218.90836      	218.88979      	218.81961      	218.81671      	218.74324      	218.7462       	218.69594      	218.80052      	218.92766      	218.89035      	218.91666      	218.91782      	
219.14201      	219.14795      	219.16641      	219.17348      	219.15852      	219.15408      	219.16115      	219.20288      	219.2047       	219.18056      	219.19199      	219.21283      	219.19612      	219.19313      	219.21613      	219.21848      	219.20013      	219.2095       	219.20874      	219.21259      	219.22708      	219.23341      	219.23898      	219.2145       	219.22491      	219.25693      	219.23746      	219.26683      	219.22328      	219.2776       	219.22154      	219.23141      	219.25482      	219.24355      	219.26332      	219.26419      	219.27354      	219.29298      	219.2731       	219.29694      	219.2658       	219.2816       	219.28429      	219.29283      	219.29189      	219.26456      	219.28323      	219.3238       	219.30692      	219.2888       	219.30165      	219.30475      	219.31581      	219.33282      	219.33919      	219.34525      	219.3362       	219.37404      	219.34831      	219.31195      	219.31749      	219.30583      	219.32391      	219.33594      	219.36116      	219.37004      	219.35013      	219.2997       	219.30724      	219.3616       	219.3484       	219.3506       	219.35352      	219.3244       	219.32265      	219.35977      	219.32217      	219.32896      	219.32251      	219.32962      	219.33         	219.33852      	219.32382      	219.34372      	219.35025      	219.3447       	219.39777      	219.4068       	219.44054      	219.34581      	219.32495      	219.20093      	219.1904       	219.15852      	219.29852      	219.35329      	219.32506      	219.30046      	219.30263      	219.31305      	
219.37914      	219.3732       	219.37964      	219.38031      	219.38004      	219.36917      	219.39496      	219.39275      	219.42052      	219.42087      	219.41095      	219.37466      	219.41455      	219.43108      	219.37845      	219.45532      	219.43314      	219.42651      	219.4624       	219.43964      	219.45139      	219.41342      	219.45555      	219.3833       	219.40852      	219.421        	219.39543      	219.41348      	219.39233      	219.40695      	219.42288      	219.39502      	219.44858      	219.40628      	219.41545      	219.39835      	219.39314      	219.42612      	219.4256       	219.45148      	219.42244      	219.40659      	219.42657      	219.43053      	219.43796      	219.45605      	219.4017       	219.39217      	219.38022      	219.40048      	219.41705      	219.41466      	219.40378      	219.39754      	219.40706      	219.40291      	219.43091      	219.40692      	219.41154      	219.41432      	219.448        	219.4155       	219.4047       	219.41202      	219.42868      	219.43056      	219.45245      	219.43784      	219.43356      	219.46234      	219.42628      	219.43231      	219.45052      	219.42052      	219.42392      	219.40967      	219.46002      	219.50128      	219.45761      	219.47348      	219.45189      	219.43578      	219.4362       	219.42581      	219.45782      	219.47006      	219.44044      	219.47708      	219.46295      	219.49962      	219.48676      	219.4859       	219.48094      	219.46704      	219.4783       	219.44919      	219.43027      	219.44736      	219.45442      	219.44922      	
219.62698      	219.62337      	219.63892      	219.64969      	219.6416       	219.64241      	219.6672       	219.64745      	219.65546      	219.65602      	219.65562      	219.6734       	219.66852      	219.6249       	219.62474      	219.62132      	219.63063      	219.6039       	219.6122       	219.61922      	219.63219      	219.62889      	219.61938      	219.65651      	219.65573      	219.67155      	219.66075      	219.64865      	219.64577      	219.63876      	219.65619      	219.6635       	219.66064      	219.67293      	219.69032      	219.67929      	219.66869      	219.70338      	219.65598      	219.65685      	219.65071      	219.67982      	219.64647      	219.63776      	219.643        	219.64641      	219.67738      	219.6913       	219.69298      	219.66637      	219.7173       	219.70883      	219.70384      	219.68654      	219.69247      	219.68695      	219.73682      	219.72072      	219.70287      	219.70639      	219.71097      	219.677        	219.71487      	219.70494      	219.7191       	219.70679      	219.70312      	219.72218      	219.72214      	219.68913      	219.73402      	219.73695      	219.73534      	219.74397      	219.7269       	219.73663      	219.79045      	219.77629      	219.71281      	219.734        	219.7331       	219.76375      	219.77669      	219.79282      	219.75812      	219.78734      	219.80592      	219.78514      	219.79662      	219.81282      	219.8094       	219.84593      	219.82875      	219.82567      	219.8402       	219.8275       	219.84608      	219.8419       	219.84445      	219.84985      	
219.95795      	219.964        	219.96654      	219.99252      	219.98155      	220.00314      	219.97598      	220.00105      	219.98734      	219.97795      	219.9999       	220.00504      	219.9686       	219.96742      	219.97186      	219.98006      	219.97485      	220.00815      	219.98657      	219.98929      	219.97081      	219.98167      	219.9934       	219.98578      	219.98126      	220.00302      	220.00114      	219.9702       	219.96812      	220.00507      	219.96481      	219.99104      	219.99814      	219.9898       	219.98381      	219.95172      	219.96786      	219.94781      	219.95702      	219.94379      	219.98576      	219.96783      	219.95377      	219.98012      	219.99806      	219.98203      	219.96054      	219.95876      	219.97296      	220.00706      	219.99376      	219.9818       	220.0181       	219.97964      	219.95346      	219.95378      	219.96259      	219.96237      	219.95743      	219.9733       	219.96687      	219.98776      	219.9896       	219.95111      	219.97911      	219.95001      	219.97646      	219.97365      	219.98192      	219.9703       	219.97125      	220.00621      	219.98782      	219.98361      	219.97491      	219.97946      	219.99619      	219.94705      	219.96255      	219.97224      	219.98825      	219.99362      	219.9658       	219.99242      	219.98305      	219.99756      	220.01056      	220.02391      	220.00572      	219.96886      	220.00095      	220.01584      	220.02058      	219.98553      	219.97894      	219.9916       	219.97632      	219.99554      	219.99886      	219.97878      	
219.83748      	219.82504      	219.80566      	219.80861      	219.8152       	219.8378       	219.84708      	219.85658      	219.86386      	219.86273      	219.90054      	219.8808       	219.90036      	219.87419      	219.89859      	219.87064      	219.88022      	219.84473      	219.84117      	219.82487      	219.8335       	219.83301      	219.81935      	219.83499      	219.85124      	219.80276      	219.86171      	219.87047      	219.8417       	219.85463      	219.85963      	219.84488      	219.848        	219.82755      	219.83893      	219.8122       	219.81252      	219.8098       	219.80511      	219.79213      	219.7973       	219.79034      	219.80809      	219.79451      	219.8091       	219.81631      	219.8109       	219.8344       	219.82265      	219.82034      	219.8202       	219.80995      	219.79405      	219.8519       	219.87029      	219.84857      	219.83812      	219.80405      	219.82626      	219.85077      	219.83626      	219.83823      	219.82642      	219.79617      	219.81232      	219.79445      	219.80435      	219.75401      	219.7947       	219.7833       	219.80208      	219.81163      	219.75926      	219.79938      	219.80211      	219.81711      	219.8165       	219.82153      	219.7985       	219.8056       	219.80418      	219.78783      	219.77724      	219.80612      	219.77124      	219.79196      	219.79953      	219.79266      	219.77676      	219.81302      	219.8152       	219.80142      	219.79395      	219.76968      	219.82324      	219.82585      	219.79222      	219.76003      	219.75749      	219.77394      	
219.50027      	219.5243       	219.51715      	219.51448      	219.51837      	219.52203      	219.4899       	219.4711       	219.46867      	219.4717       	219.44577      	219.4638       	219.45734      	219.44946      	219.43654      	219.45865      	219.44133      	219.45145      	219.46022      	219.48322      	219.44409      	219.43971      	219.46959      	219.42809      	219.4576       	219.44391      	219.41219      	219.4376       	219.39207      	219.42836      	219.39551      	219.41487      	219.41794      	219.38698      	219.42833      	219.39682      	219.406        	219.40062      	219.41048      	219.40236      	219.39078      	219.39401      	219.40479      	219.4255       	219.41022      	219.45116      	219.44122      	219.40839      	219.41727      	219.41127      	219.37323      	219.39882      	219.40666      	219.39781      	219.37077      	219.37819      	219.3863       	219.44005      	219.40858      	219.39862      	219.41379      	219.40918      	219.41862      	219.41954      	219.4021       	219.3703       	219.4384       	219.42766      	219.39447      	219.46034      	219.41425      	219.39029      	219.42123      	219.41023      	219.38777      	219.44029      	219.4256       	219.42914      	219.41599      	219.44919      	219.42569      	219.40952      	219.40253      	219.43434      	219.4563       	219.44363      	219.464        	219.4785       	219.44344      	219.43008      	219.44897      	219.46634      	219.43913      	219.45448      	219.43495      	219.4039       	219.46434      	219.4601       	219.48878      	219.47252      	
219.50987      	219.55235      	219.50743      	219.49315      	219.50668      	219.51028      	219.48257      	219.50952      	219.5145       	219.52916      	219.54541      	219.50977      	219.5394       	219.52138      	219.5554       	219.49358      	219.50922      	219.5258       	219.48616      	219.503        	219.55084      	219.51337      	219.544        	219.55577      	219.54645      	219.56789      	219.5414       	219.52089      	219.53258      	219.53004      	219.50922      	219.51855      	219.53018      	219.55399      	219.58128      	219.54486      	219.52158      	219.53229      	219.5284       	219.53925      	219.52878      	219.54282      	219.5311       	219.55096      	219.49928      	219.50877      	219.5101       	219.4808       	219.44948      	219.48267      	219.5354       	219.53542      	219.52994      	219.49953      	219.5222       	219.50491      	219.50433      	219.55371      	219.5134       	219.52196      	219.48265      	219.47781      	219.539        	219.53555      	219.53476      	219.56119      	219.57278      	219.55006      	219.53809      	219.5287       	219.51736      	219.5482       	219.50221      	219.50839      	219.53636      	219.51033      	219.53972      	219.54381      	219.53238      	219.51407      	219.5309       	219.53876      	219.54825      	219.54395      	219.54349      	219.56104      	219.58815      	219.55203      	219.56519      	219.55374      	219.55353      	219.5411       	219.55663      	219.53773      	219.57823      	219.58983      	219.55997      	219.54338      	219.56259      	219.53334      	
219.59964      	219.60255      	219.5621       	219.5934       	219.61443      	219.58727      	219.62814      	219.6028       	219.57039      	219.5801       	219.59784      	219.59164      	219.58577      	219.61627      	219.60864      	219.57965      	219.6061       	219.5922       	219.59142      	219.56837      	219.58401      	219.57018      	219.58168      	219.61334      	219.59367      	219.58669      	219.57843      	219.59274      	219.59901      	219.6212       	219.59366      	219.56047      	219.57259      	219.57352      	219.57405      	219.56851      	219.55844      	219.58197      	219.54489      	219.54158      	219.55891      	219.5556       	219.5818       	219.54901      	219.54474      	219.58583      	219.57083      	219.55605      	219.54852      	219.56633      	219.56725      	219.56013      	219.56442      	219.57037      	219.57623      	219.56941      	219.54932      	219.54265      	219.56421      	219.56323      	219.58646      	219.52655      	219.54945      	219.50967      	219.51918      	219.55452      	219.54436      	219.55208      	219.55615      	219.52182      	219.52887      	219.52962      	219.54709      	219.55623      	219.52614      	219.51569      	219.5183       	219.54259      	219.57845      	219.54027      	219.52728      	219.5141       	219.564        	219.55821      	219.5547       	219.56638      	219.53133      	219.55788      	219.54323      	219.5678       	219.57722      	219.52873      	219.52399      	219.5278       	219.57909      	219.51608      	219.56982      	219.52107      	219.50706      	219.5577       	
219.42914      	219.44789      	219.41805      	219.38324      	219.39761      	219.38388      	219.3751       	219.34386      	219.36766      	219.35402      	219.35979      	219.36325      	219.3768       	219.3746       	219.40332      	219.36237      	219.37465      	219.39098      	219.35757      	219.36517      	219.34439      	219.36847      	219.35411      	219.34097      	219.34996      	219.34396      	219.33832      	219.36974      	219.36327      	219.32932      	219.34644      	219.33607      	219.39748      	219.32655      	219.37657      	219.34462      	219.35512      	219.36688      	219.35599      	219.35036      	219.3444       	219.34413      	219.35635      	219.38023      	219.38812      	219.3619       	219.32465      	219.32982      	219.32974      	219.36166      	219.34595      	219.34123      	219.3327       	219.33221      	219.34041      	219.32504      	219.29295      	219.28668      	219.30014      	219.29001      	219.1747       	219.08209      	219.11273      	219.16222      	219.2666       	219.30623      	219.31168      	219.31798      	219.31517      	219.31479      	219.30153      	219.27628      	219.30063      	219.28613      	219.28728      	219.30023      	219.28703      	219.28442      	219.36134      	219.33348      	219.32306      	219.31383      	219.30563      	219.31787      	219.3425       	219.33319      	219.28099      	219.31644      	219.33133      	219.34683      	219.34277      	219.35712      	219.34348      	219.37181      	219.36476      	219.42172      	219.40155      	219.38466      	219.37158      	219.39363      	
219.3352       	219.33063      	219.312        	219.32054      	219.34454      	219.33197      	219.32631      	219.31764      	219.31235      	219.32147      	219.33746      	219.32243      	219.35002      	219.32944      	219.32333      	219.34172      	219.33363      	219.34438      	219.33911      	219.34935      	219.34668      	219.35687      	219.3611       	219.35048      	219.35986      	219.35092      	219.37256      	219.41545      	219.35358      	219.37245      	219.34373      	219.35254      	219.34537      	219.34929      	219.33374      	219.34196      	219.35237      	219.36818      	219.3549       	219.37141      	219.35788      	219.31644      	219.32787      	219.36398      	219.34099      	219.34804      	219.3461       	219.34767      	219.32521      	219.3282       	219.33365      	219.31845      	219.35188      	219.37108      	219.3426       	219.33008      	219.38516      	219.40112      	219.38582      	219.34897      	219.33888      	219.31174      	219.34833      	219.32188      	219.3215       	219.37706      	219.37491      	219.35948      	219.37695      	219.35843      	219.35637      	219.34804      	219.3537       	219.35068      	219.34642      	219.36667      	219.37183      	219.34254      	219.36314      	219.37613      	219.39333      	219.38615      	219.36374      	219.35162      	219.37491      	219.37872      	219.39667      	219.42636      	219.43767      	219.44736      	219.41647      	219.41116      	219.41344      	219.40794      	219.42084      	219.39613      	219.44577      	219.41823      	219.40579      	219.43742      	
219.39403      	219.39386      	219.4087       	219.44695      	219.46056      	219.4382       	219.42072      	219.42844      	219.40356      	219.38696      	219.36185      	219.34447      	219.34627      	219.32945      	219.35318      	219.38646      	219.36598      	219.38956      	219.42372      	219.36801      	219.33827      	219.363        	219.32777      	219.3804       	219.36133      	219.31418      	219.3246       	219.33496      	219.34586      	219.33795      	219.36269      	219.333        	219.34984      	219.32188      	219.32481      	219.3408       	219.32802      	219.32802      	219.36302      	219.38312      	219.36034      	219.3728       	219.39006      	219.37428      	219.35641      	219.35399      	219.3592       	219.31         	219.34215      	219.30905      	219.34589      	219.35165      	219.29681      	219.34645      	219.3269       	219.3152       	219.3121       	219.3085       	219.32333      	219.29736      	219.32048      	219.30597      	219.29608      	219.29865      	219.2806       	219.28758      	219.28775      	219.28084      	219.26901      	219.26125      	219.26044      	219.24373      	219.24599      	219.25066      	219.24666      	219.28865      	219.27556      	219.23349      	219.24446      	219.21889      	219.22615      	219.21913      	219.20624      	219.1944       	219.18399      	219.17258      	219.18932      	219.20888      	219.18768      	219.16193      	219.20982      	219.1712       	219.17117      	219.17274      	219.17316      	219.21164      	219.18605      	219.20387      	219.20668      	219.17593      	
218.98016      	218.9703       	218.96402      	218.95386      	218.94986      	218.93416      	218.93382      	218.90903      	218.94711      	218.9824       	218.93898      	218.93167      	218.93051      	218.93015      	218.93431      	218.88881      	218.91669      	218.90948      	218.92494      	218.90814      	218.93427      	218.96877      	218.891        	218.90384      	218.91219      	218.87779      	218.90114      	218.89816      	218.86818      	218.86032      	218.92052      	218.90005      	218.91354      	218.87419      	218.86642      	218.8999       	218.8553       	218.83098      	218.83527      	218.85927      	218.8749       	218.8614       	218.8858       	218.86589      	218.85931      	218.84416      	218.86636      	218.8756       	218.84352      	218.83823      	218.83057      	218.85513      	218.85529      	218.86378      	218.82709      	218.83911      	218.8511       	218.78767      	218.82608      	218.81735      	218.75171      	218.78996      	218.74802      	218.7933       	218.81058      	218.8057       	218.84921      	218.84145      	218.80666      	218.7789       	218.82191      	218.83087      	218.77106      	218.74098      	218.75009      	218.75534      	218.75227      	218.74892      	218.75844      	218.75986      	218.72371      	218.72562      	218.73575      	218.7615       	218.75603      	218.77069      	218.75787      	218.76898      	218.77107      	218.79831      	218.78354      	218.77979      	218.78328      	218.729        	218.73293      	218.70328      	218.74095      	218.72089      	218.70209      	218.73204      	
218.71913      	218.71826      	218.73538      	218.76218      	218.77602      	218.7789       	218.75499      	218.74406      	218.71205      	218.74844      	218.7451       	218.73294      	218.74582      	218.76207      	218.77467      	218.76666      	218.7296       	218.70616      	218.73573      	218.76389      	218.75279      	218.7162       	218.72354      	218.77127      	218.80363      	218.78993      	218.77052      	218.74356      	218.7495       	218.74933      	218.71397      	218.73524      	218.73006      	218.71353      	218.73058      	218.74911      	218.74245      	218.74896      	218.79877      	218.78473      	218.7574       	218.7499       	218.74818      	218.75601      	218.76474      	218.76434      	218.76987      	218.78722      	218.7589       	218.7734       	218.79005      	218.78714      	218.7741       	218.76262      	218.78302      	218.7717       	218.76671      	218.73898      	218.76645      	218.73956      	218.74013      	218.68442      	218.74352      	218.78131      	218.74002      	218.73534      	218.75616      	218.77127      	218.78732      	218.76442      	218.75702      	218.7687       	218.77165      	218.78769      	218.73843      	218.76064      	218.76527      	218.76733      	218.7745       	218.80435      	218.78099      	218.80437      	218.78743      	218.81844      	218.81126      	218.8247       	218.78499      	218.80557      	218.80013      	218.79413      	218.81464      	218.80414      	218.80162      	218.80174      	218.82715      	218.84122      	218.80936      	218.8251       	218.77292      	218.8242       	
218.9966       	218.97433      	218.98828      	218.97289      	218.9743       	218.98883      	218.99445      	219.02472      	219.00763      	219.02629      	219.04428      	219.01031      	219.02614      	219.04095      	219.02621      	219.0388       	219.03102      	219.0345       	219.0118       	219.06595      	219.03769      	219.02075      	219.04259      	219.00937      	219.01266      	219.03181      	219.04428      	219.05374      	219.05225      	219.02875      	219.0453       	219.03932      	219.01994      	219.04883      	219.04169      	219.05984      	219.0595       	219.06435      	219.08827      	219.06859      	219.11612      	219.09067      	219.08499      	219.06761      	219.0985       	219.07822      	219.0703       	219.08133      	219.09926      	219.10603      	219.10823      	219.12967      	219.11034      	219.09807      	219.13737      	219.08437      	219.1233       	219.09682      	219.11565      	219.13626      	219.07298      	219.13705      	219.12123      	219.12982      	219.11523      	219.11043      	219.12303      	219.1238       	219.13313      	219.11313      	219.12149      	219.1621       	219.20001      	219.18031      	219.16286      	219.1548       	219.16382      	219.14297      	219.16164      	219.16599      	219.15291      	219.18344      	219.1924       	219.16331      	219.17056      	219.14551      	219.16257      	219.17142      	219.1694       	219.20377      	219.16934      	219.20505      	219.19803      	219.17285      	219.18166      	219.15872      	219.18077      	219.18764      	219.16042      	219.1971       	
219.3563       	219.36671      	219.35985      	219.35597      	219.36024      	219.37125      	219.35643      	219.3869       	219.37566      	219.36583      	219.39008      	219.35986      	219.37996      	219.37364      	219.37302      	219.3871       	219.36208      	219.39041      	219.36694      	219.3516       	219.3794       	219.35924      	219.34132      	219.3162       	219.32837      	219.34933      	219.31958      	219.35487      	219.34154      	219.36746      	219.38441      	219.37242      	219.35928      	219.34073      	219.31381      	219.34836      	219.34389      	219.37123      	219.3458       	219.32715      	219.33961      	219.37694      	219.36485      	219.39517      	219.3804       	219.36314      	219.38672      	219.37148      	219.3676       	219.38844      	219.3863       	219.35959      	219.34549      	219.37999      	219.36452      	219.35524      	219.34743      	219.39687      	219.38431      	219.3195       	219.3673       	219.3623       	219.35123      	219.36554      	219.35316      	219.36241      	219.37148      	219.36652      	219.35205      	219.35184      	219.38376      	219.36182      	219.34825      	219.34781      	219.33716      	219.35004      	219.36783      	219.3549       	219.37518      	219.35571      	219.34407      	219.36942      	219.37338      	219.37437      	219.37755      	219.39412      	219.37589      	219.39874      	219.38892      	219.37592      	219.37141      	219.38846      	219.36548      	219.4096       	219.39767      	219.37654      	219.33937      	219.40924      	219.3659       	219.4376       	
219.30531      	219.32738      	219.32265      	219.31973      	219.32161      	219.32785      	219.32008      	219.29526      	219.29091      	219.28928      	219.25792      	219.24493      	219.23235      	219.23407      	219.24976      	219.23169      	219.2379       	219.23436      	219.23782      	219.2621       	219.24747      	219.23624      	219.20917      	219.22388      	219.2674       	219.23663      	219.26187      	219.27956      	219.24762      	219.26968      	219.25497      	219.26833      	219.25443      	219.26437      	219.26308      	219.25034      	219.26797      	219.28903      	219.2635       	219.26187      	219.26677      	219.28232      	219.28513      	219.26346      	219.29979      	219.27599      	219.27637      	219.30313      	219.27727      	219.29964      	219.24576      	219.23619      	219.22795      	219.2067       	219.24634      	219.24998      	219.24965      	219.24818      	219.24658      	219.26393      	219.24779      	219.27428      	219.23752      	219.25105      	219.26382      	219.21506      	219.25638      	219.27916      	219.31056      	219.2743       	219.26039      	219.25409      	219.2579       	219.2928       	219.28717      	219.25449      	219.22142      	219.18977      	219.22461      	219.19965      	219.18655      	219.22269      	219.23364      	219.23415      	219.24916      	219.22874      	219.2086       	219.242        	219.2432       	219.23288      	219.23288      	219.2361       	219.218        	219.2348       	219.23734      	219.23152      	219.23862      	219.21133      	219.22096      	219.24278      	
219.3151       	219.28703      	219.32082      	219.35571      	219.35213      	219.3467       	219.35638      	219.3339       	219.34904      	219.36215      	219.40765      	219.36195      	219.36696      	219.3907       	219.38518      	219.34666      	219.34422      	219.32205      	219.3486       	219.34122      	219.34724      	219.33615      	219.31934      	219.34961      	219.41632      	219.41666      	219.44026      	219.39442      	219.3799       	219.38649      	219.37387      	219.374        	219.37369      	219.32         	219.34032      	219.34608      	219.37038      	219.37076      	219.36101      	219.35564      	219.33545      	219.36595      	219.35963      	219.36855      	219.36232      	219.35506      	219.37653      	219.37083      	219.36395      	219.35504      	219.36981      	219.33363      	219.35663      	219.35149      	219.37697      	219.35017      	219.3526       	219.36008      	219.38469      	219.37982      	219.37811      	219.36247      	219.37006      	219.34059      	219.37256      	219.35214      	219.36188      	219.36464      	219.33388      	219.36856      	219.35832      	219.39157      	219.34613      	219.33116      	219.33156      	219.36694      	219.34816      	219.3734       	219.34285      	219.36743      	219.3849       	219.35951      	219.35497      	219.29485      	219.35759      	219.35863      	219.35432      	219.37355      	219.36465      	219.41         	219.38916      	219.39334      	219.39323      	219.37573      	219.3978       	219.39705      	219.42172      	219.37744      	219.36009      	219.33046      	
219.33792      	219.32843      	219.3179       	219.3168       	219.32571      	219.31851      	219.33017      	219.3393       	219.33507      	219.31464      	219.34012      	219.34503      	219.3378       	219.30276      	219.29306      	219.28876      	219.29362      	219.2786       	219.28719      	219.3086       	219.31396      	219.30052      	219.25247      	219.2679       	219.24414      	219.28233      	219.33282      	219.29715      	219.3046       	219.27951      	219.30501      	219.32265      	219.31006      	219.29735      	219.27148      	219.30127      	219.29453      	219.30411      	219.3317       	219.31038      	219.32785      	219.29576      	219.33177      	219.33864      	219.34732      	219.30612      	219.35677      	219.36493      	219.35226      	219.36586      	219.34015      	219.36356      	219.35988      	219.37311      	219.365        	219.37091      	219.37996      	219.35141      	219.36597      	219.37071      	219.4006       	219.39291      	219.3705       	219.40373      	219.38182      	219.38535      	219.4007       	219.3517       	219.38588      	219.38278      	219.39029      	219.40018      	219.40283      	219.39871      	219.39195      	219.39102      	219.39746      	219.44328      	219.41643      	219.42343      	219.44205      	219.47073      	219.43822      	219.47757      	219.49303      	219.51479      	219.53102      	219.49124      	219.50447      	219.54427      	219.49178      	219.49283      	219.48552      	219.48776      	219.4978       	219.45538      	219.4698       	219.45668      	219.45738      	219.44968      	
219.5944       	219.58226      	219.58806      	219.59747      	219.61961      	219.65176      	219.59766      	219.5813       	219.611        	219.60345      	219.60905      	219.59563      	219.5845       	219.59407      	219.57095      	219.59555      	219.593        	219.60634      	219.62355      	219.61331      	219.64569      	219.65501      	219.65472      	219.66693      	219.63548      	219.60878      	219.60019      	219.5786       	219.63396      	219.61143      	219.61209      	219.60648      	219.60661      	219.62706      	219.6406       	219.62389      	219.6327       	219.65587      	219.64764      	219.63637      	219.68039      	219.6848       	219.6522       	219.6381       	219.64684      	219.58713      	219.62183      	219.61087      	219.6518       	219.63739      	219.62051      	219.6341       	219.64397      	219.6263       	219.64388      	219.64069      	219.6411       	219.65858      	219.65048      	219.67163      	219.63446      	219.66254      	219.6757       	219.62852      	219.65257      	219.67894      	219.69354      	219.69441      	219.6744       	219.74812      	219.73114      	219.73756      	219.7012       	219.7114       	219.72826      	219.7141       	219.66644      	219.67497      	219.66698      	219.68254      	219.65614      	219.6845       	219.67848      	219.68556      	219.66974      	219.67162      	219.73729      	219.70996      	219.68085      	219.6783       	219.67938      	219.75073      	219.7333       	219.75568      	219.7556       	219.70084      	219.6662       	219.65924      	219.5472       	219.66193      	
219.73201      	219.73386      	219.71893      	219.70891      	219.71439      	219.70633      	219.69702      	219.7085       	219.69315      	219.69005      	219.68707      	219.6992       	219.69887      	219.68199      	219.67723      	219.70523      	219.6878       	219.6813       	219.65509      	219.6635       	219.65756      	219.66086      	219.66422      	219.67523      	219.68724      	219.67581      	219.66295      	219.65039      	219.6713       	219.6823       	219.67274      	219.67984      	219.66322      	219.67792      	219.70546      	219.7066       	219.69212      	219.70786      	219.68704      	219.67943      	219.7103       	219.6561       	219.66501      	219.69753      	219.70288      	219.71948      	219.72298      	219.70721      	219.71605      	219.72844      	219.74307      	219.76532      	219.79807      	219.76573      	219.77539      	219.79143      	219.74847      	219.74481      	219.70085      	219.74355      	219.74854      	219.72763      	219.73062      	219.72545      	219.71173      	219.74129      	219.76854      	219.75894      	219.7507       	219.72281      	219.73114      	219.74652      	219.72664      	219.75935      	219.74962      	219.7765       	219.73497      	219.70963      	219.74384      	219.71655      	219.75911      	219.7361       	219.76207      	219.77835      	219.71222      	219.72209      	219.7159       	219.69241      	219.70901      	219.65868      	219.4732       	219.5151       	219.51637      	219.48354      	219.49904      	219.56396      	219.64641      	219.59702      	219.62668      	219.56317      	
219.80933      	219.77884      	219.78615      	219.8111       	219.7946       	219.79636      	219.80801      	219.81137      	219.82094      	219.77924      	219.80678      	219.79582      	219.79305      	219.80968      	219.80792      	219.78131      	219.79173      	219.7946       	219.7968       	219.81241      	219.79199      	219.82224      	219.81935      	219.77847      	219.8292       	219.82399      	219.81464      	219.80052      	219.85065      	219.6857       	219.80202      	219.8036       	219.77676      	219.8142       	219.8444       	219.83778      	219.77206      	219.7936       	219.67062      	219.76976      	219.62051      	219.59706      	219.58849      	219.58278      	219.5598       	219.58617      	219.70613      	219.65302      	219.61702      	219.59839      	219.60837      	219.63275      	219.67056      	219.59703      	219.61555      	219.59619      	219.65306      	219.67361      	219.55006      	219.54286      	219.76653      	219.75131      	219.76292      	219.78001      	219.75894      	219.78583      	219.77995      	219.75922      	219.77089      	219.77518      	219.7591       	219.7828       	219.761        	219.7499       	219.74944      	219.73558      	219.76189      	219.75122      	219.72534      	219.77231      	219.75583      	219.68373      	219.74403      	219.76009      	219.70204      	219.71843      	219.71146      	219.69783      	219.73471      	219.6874       	219.6276       	219.67278      	219.68011      	219.66019      	219.64732      	219.64774      	219.6565       	219.64598      	219.66888      	219.642        	
219.37883      	219.39224      	219.38866      	219.38344      	219.37045      	219.4034       	219.38461      	219.3803       	219.35997      	219.34845      	219.36516      	219.36282      	219.3653       	219.35915      	219.36388      	219.35254      	219.3192       	219.30739      	219.32274      	219.30113      	219.33798      	219.36147      	219.30322      	219.33429      	219.33064      	219.31546      	219.28407      	219.16173      	219.21097      	219.2593       	219.15298      	219.09402      	219.14389      	219.11893      	219.1351       	219.15884      	219.19452      	219.22502      	219.22427      	219.20126      	219.27435      	219.265        	219.25443      	219.26865      	219.2525       	219.22438      	219.23148      	219.25114      	219.25156      	219.24533      	219.2565       	219.2575       	219.28589      	219.25375      	219.25136      	219.2394       	219.24197      	219.22826      	219.1348       	219.08871      	219.26817      	219.25415      	219.28146      	219.28719      	219.26686      	219.2741       	219.2475       	219.24718      	219.2593       	219.28311      	219.29556      	219.27692      	219.28769      	219.26668      	219.26361      	219.28732      	219.24454      	219.24521      	219.26767      	219.29391      	219.27556      	219.24693      	219.27533      	219.2534       	219.20738      	219.29921      	219.2374       	219.30894      	219.28043      	219.09406      	219.15056      	219.19933      	219.22235      	219.19832      	219.22939      	219.25087      	219.22722      	219.20393      	219.20944      	219.19565      	
219.07536      	219.08656      	219.06145      	219.05246      	219.05118      	219.06288      	219.07195      	219.03864      	219.04053      	219.04697      	219.03816      	219.06184      	219.02579      	219.01181      	219.05865      	219.03255      	219.0421       	219.01776      	219.01596      	219.02228      	219.0545       	219.06184      	219.04758      	219.05086      	219.03961      	219.02943      	219.03787      	218.91151      	218.96518      	218.9631       	218.9799       	218.97842      	219.00821      	219.02838      	219.01903      	218.99033      	219.03082      	219.01207      	219.00815      	218.97694      	218.98807      	218.97247      	219.01675      	219.01302      	218.99985      	219.0257       	219.00961      	219.00505      	218.99722      	218.99147      	218.99542      	218.96849      	218.97328      	219.00113      	219.0135       	219.03474      	219.01968      	219.02646      	218.9025       	218.86786      	219.03285      	219.02542      	219.0691       	219.05705      	219.06308      	219.01869      	219.03603      	219.049        	219.03835      	219.05939      	219.04994      	219.06168      	219.07593      	219.03766      	219.0755       	219.05559      	219.0258       	219.02953      	219.05345      	219.04051      	219.05908      	219.05238      	219.02325      	219.0237       	219.02231      	219.00847      	219.0144       	219.04466      	219.00554      	219.00269      	218.95407      	218.95761      	218.98232      	218.98225      	218.99577      	219.04495      	219.03783      	218.988        	218.97932      	218.9825       	
219.22118      	219.21922      	219.1942       	219.1858       	219.2002       	219.17885      	219.16534      	219.20404      	219.2044       	219.15567      	219.1124       	219.16722      	219.16347      	219.17813      	219.14265      	219.10577      	219.17531      	219.13971      	219.13629      	219.11261      	219.08913      	219.13118      	219.11374      	219.13646      	219.09897      	219.10216      	219.10197      	219.16331      	219.004        	219.07034      	219.03369      	219.10524      	219.0513       	219.08493      	219.0642       	219.09811      	219.0829       	219.09239      	219.12662      	219.1094       	219.0911       	219.09149      	219.08995      	219.06349      	219.09978      	219.09763      	219.09518      	219.07664      	219.11385      	219.08513      	219.0913       	219.06224      	219.05943      	219.12335      	219.12093      	219.09131      	219.08878      	219.08774      	219.00894      	218.93805      	219.12883      	219.16466      	219.10194      	219.12209      	219.13344      	219.10864      	219.11679      	219.11223      	219.13742      	219.1246       	219.14258      	219.15536      	219.16644      	219.14798      	219.12921      	219.11505      	219.11441      	219.10515      	219.08429      	219.0788       	219.11172      	219.13655      	219.18236      	219.15486      	219.19955      	219.1527       	219.14594      	219.16783      	219.15814      	219.05629      	219.07108      	219.15321      	219.10652      	219.15482      	219.12155      	219.13615      	219.12173      	219.12053      	219.09897      	219.13559      	
219.22194      	219.23616      	219.23413      	219.22304      	219.21732      	219.21683      	219.2026       	219.23834      	219.22601      	219.21452      	219.22827      	219.21947      	219.20367      	219.20596      	219.18625      	219.23541      	219.21924      	219.18405      	219.24379      	219.23926      	219.23586      	219.20874      	219.22806      	219.26259      	219.20888      	219.2506       	219.23228      	219.33742      	219.17357      	219.24284      	219.14806      	219.1298       	219.09926      	219.15929      	219.18936      	219.19571      	219.21461      	219.21191      	219.2287       	219.2109       	219.28615      	219.23096      	219.2311       	219.22192      	219.25421      	219.21094      	219.23845      	219.2448       	219.24869      	219.26373      	219.27156      	219.22316      	219.23357      	219.23463      	219.20457      	219.23941      	219.2517       	219.26064      	219.17067      	219.03453      	219.195        	219.25922      	219.26195      	219.2621       	219.26466      	219.2774       	219.27994      	219.29034      	219.26503      	219.27704      	219.28073      	219.26845      	219.28586      	219.27798      	219.26007      	219.26035      	219.25887      	219.2464       	219.30472      	219.29373      	219.29477      	219.30032      	219.28297      	219.30037      	219.24428      	219.24454      	219.24527      	219.25096      	219.24423      	219.0864       	219.18181      	219.10051      	219.17026      	219.21536      	219.20895      	219.23834      	219.24265      	219.2464       	219.2501       	219.17912      	
219.0377       	219.04388      	219.0545       	219.0515       	219.03749      	219.055        	219.07838      	219.0683       	219.0939       	219.07484      	219.0698       	219.07213      	219.0682       	219.04785      	219.0287       	219.00267      	219.03702      	219.00694      	219.03253      	219.03941      	219.01213      	219.0506       	219.01886      	219.0118       	219.01866      	218.9682       	218.98618      	218.96777      	218.88815      	218.94376      	218.91148      	218.93465      	218.93582      	218.92223      	218.9201       	218.9186       	218.95413      	218.8901       	218.91933      	218.90826      	218.92252      	218.95085      	218.96832      	218.96907      	218.93823      	218.95108      	218.95087      	218.93457      	218.94798      	218.94058      	218.95085      	218.94193      	218.90733      	218.91556      	218.949        	218.91283      	218.8954       	218.88158      	218.79633      	218.74123      	218.88942      	218.91194      	218.91722      	218.89745      	218.91553      	218.91986      	218.88892      	218.88577      	218.8932       	218.87996      	218.89703      	218.85248      	218.87062      	218.85707      	218.83334      	218.8479       	218.84052      	218.87088      	218.83325      	218.83298      	218.82927      	218.81403      	218.83586      	218.80185      	218.82936      	218.82585      	218.85376      	218.81834      	218.83266      	218.82663      	218.70572      	218.78041      	218.75983      	218.76889      	218.78784      	218.73232      	218.74786      	218.73093      	218.69415      	218.74641      	
218.68922      	218.70645      	218.71834      	218.71481      	218.7278       	218.71848      	218.74431      	218.70744      	218.70369      	218.70164      	218.69843      	218.70598      	218.6915       	218.70602      	218.67747      	218.72705      	218.72534      	218.68181      	218.67514      	218.65176      	218.65433      	218.6839       	218.64113      	218.67227      	218.60829      	218.61653      	218.60114      	218.55917      	218.49872      	218.60359      	218.56805      	218.58229      	218.58716      	218.56972      	218.55186      	218.53163      	218.56378      	218.56671      	218.53297      	218.55232      	218.57443      	218.55495      	218.56306      	218.55312      	218.59471      	218.58124      	218.61778      	218.59337      	218.58423      	218.5603       	218.56424      	218.58975      	218.59602      	218.60295      	218.61076      	218.58234      	218.5851       	218.59073      	218.50607      	218.45026      	218.59033      	218.67763      	218.64183      	218.65573      	218.634        	218.64117      	218.68806      	218.65297      	218.65028      	218.67683      	218.63634      	218.65451      	218.6594       	218.63951      	218.6717       	218.64859      	218.67368      	218.63957      	218.68028      	218.70758      	218.65773      	218.65942      	218.66951      	218.67331      	218.69435      	218.66795      	218.66878      	218.66667      	218.67923      	218.5073       	218.58456      	218.64145      	218.63736      	218.66356      	218.63405      	218.65349      	218.67453      	218.65495      	218.61574      	218.65598      	
219.00226      	219.0054       	218.9699       	218.98325      	219.00015      	218.99065      	218.96104      	218.99347      	218.98291      	218.98907      	218.98705      	218.99461      	218.99753      	218.98634      	218.98892      	219.01169      	219.0135       	219.00551      	218.99765      	218.99814      	219.0172       	218.96063      	219.00148      	219.0163       	219.00229      	219.00722      	219.0376       	219.05534      	218.92538      	218.99005      	219.00827      	218.9975       	219.02654      	219.00583      	218.99582      	219.03362      	218.9994       	219.00548      	218.99893      	219.00458      	218.98315      	219.0464       	219.01044      	219.04453      	219.02933      	219.0235       	219.04451      	219.06427      	219.06584      	219.04404      	219.04774      	219.04916      	219.05746      	219.06812      	219.0336       	219.05013      	219.07652      	219.0488       	219.0005       	218.85757      	219.07341      	219.10799      	219.11691      	219.14284      	219.12297      	219.07692      	219.109        	219.11276      	219.1712       	219.11623      	219.15916      	219.13411      	219.12599      	219.12425      	219.10043      	219.1372       	219.09866      	219.13742      	219.12247      	219.15187      	219.15659      	219.15872      	219.1509       	219.16217      	219.18433      	219.18018      	219.17033      	219.16014      	219.11583      	219.17755      	219.09514      	219.13818      	219.12704      	219.13258      	219.12947      	219.11053      	219.15627      	219.14722      	219.15761      	219.15656      	
219.48448      	219.47         	219.43593      	219.4537       	219.45172      	219.44736      	219.47887      	219.47247      	219.45418      	219.48064      	219.47452      	219.48064      	219.48602      	219.46524      	219.49081      	219.5098       	219.49261      	219.49294      	219.4489       	219.47305      	219.47437      	219.4813       	219.49951      	219.47995      	219.48907      	219.49672      	219.52214      	219.4661       	219.38231      	219.45149      	219.44872      	219.43857      	219.4374       	219.47385      	219.49136      	219.48683      	219.47923      	219.46477      	219.46654      	219.51561      	219.48465      	219.476        	219.48682      	219.47357      	219.52054      	219.48405      	219.47879      	219.48936      	219.52654      	219.47067      	219.46564      	219.49826      	219.49496      	219.49617      	219.50397      	219.49574      	219.49626      	219.47797      	219.43268      	219.31467      	219.50558      	219.51883      	219.51979      	219.55031      	219.51791      	219.4842       	219.49432      	219.49509      	219.5183       	219.53986      	219.52686      	219.5471       	219.52477      	219.51817      	219.53847      	219.52238      	219.55052      	219.51779      	219.50357      	219.5514       	219.51506      	219.51918      	219.5234       	219.49855      	219.50633      	219.5016       	219.49525      	219.5507       	219.5319       	219.46194      	219.54964      	219.54965      	219.52995      	219.5582       	219.52824      	219.48903      	219.50272      	219.49855      	219.5332       	219.49554      	
219.5157       	219.50443      	219.53401      	219.50592      	219.52225      	219.51173      	219.51364      	219.47565      	219.4943       	219.50943      	219.48508      	219.52647      	219.5111       	219.51654      	219.50528      	219.46011      	219.4935       	219.46315      	219.49586      	219.48932      	219.46669      	219.4429       	219.45393      	219.4694       	219.43402      	219.46808      	219.46523      	219.4475       	219.38187      	219.41876      	219.41347      	219.42668      	219.46219      	219.43417      	219.43579      	219.41675      	219.4754       	219.46869      	219.47215      	219.49226      	219.48329      	219.45999      	219.48587      	219.4761       	219.47052      	219.50848      	219.47784      	219.50171      	219.454        	219.46808      	219.4863       	219.45387      	219.46289      	219.40958      	219.441        	219.45045      	219.44904      	219.44264      	219.36078      	219.2617       	219.4187       	219.48492      	219.44269      	219.4275       	219.46146      	219.46873      	219.44656      	219.45543      	219.42966      	219.42163      	219.42157      	219.42686      	219.43736      	219.4245       	219.44264      	219.39093      	219.41827      	219.41942      	219.417        	219.41985      	219.40253      	219.37721      	219.40877      	219.42409      	219.37962      	219.42375      	219.41605      	219.42822      	219.4309       	219.4096       	219.29935      	219.3723       	219.37247      	219.3867       	219.41121      	219.37752      	219.366        	219.35004      	219.37514      	219.387        	
219.35558      	219.33981      	219.34506      	219.35374      	219.35701      	219.33382      	219.33055      	219.37416      	219.33665      	219.33504      	219.34007      	219.31796      	219.33653      	219.32014      	219.31296      	219.32545      	219.33357      	219.28873      	219.31885      	219.32318      	219.32191      	219.296        	219.32625      	219.30374      	219.32968      	219.30792      	219.30255      	219.36003      	219.2049       	219.2571       	219.2501       	219.25894      	219.23877      	219.30168      	219.282        	219.2784       	219.26204      	219.25977      	219.2946       	219.28983      	219.30109      	219.2867       	219.27525      	219.3039       	219.31569      	219.29715      	219.29591      	219.30444      	219.29694      	219.3064       	219.30444      	219.28786      	219.28783      	219.28287      	219.31912      	219.30296      	219.30167      	219.31049      	219.22244      	219.12425      	219.29962      	219.35321      	219.35887      	219.31526      	219.29938      	219.35098      	219.39581      	219.36668      	219.36542      	219.32506      	219.33377      	219.36526      	219.31064      	219.31412      	219.32484      	219.31909      	219.31917      	219.30127      	219.30284      	219.27008      	219.26653      	219.25502      	219.29674      	219.28249      	219.2173       	219.25081      	219.24405      	219.24066      	219.30077      	219.18033      	219.14714      	219.20882      	219.20956      	219.2378       	219.24693      	219.23294      	219.25742      	219.19304      	219.20685      	219.2228       	
219.30797      	219.28214      	219.26985      	219.27109      	219.28972      	219.30328      	219.27718      	219.20956      	219.23514      	219.22966      	219.18675      	219.22906      	219.20833      	219.22404      	219.24202      	219.19894      	219.23756      	219.2019       	219.24065      	219.20793      	219.23904      	219.23         	219.24797      	219.24486      	219.22081      	219.2731       	219.23875      	219.26761      	219.14041      	219.20135      	219.20743      	219.19734      	219.19293      	219.21451      	219.19496      	219.2064       	219.18045      	219.24733      	219.21075      	219.2444       	219.23386      	219.25603      	219.2427       	219.30817      	219.25113      	219.25572      	219.27888      	219.24814      	219.28247      	219.25816      	219.2976       	219.28955      	219.32576      	219.32474      	219.30135      	219.30502      	219.28433      	219.30496      	219.24266      	219.15276      	219.3016       	219.34085      	219.36702      	219.38194      	219.3808       	219.35863      	219.36952      	219.39769      	219.3738       	219.38194      	219.37978      	219.39038      	219.35661      	219.34         	219.26024      	219.3562       	219.38602      	219.38249      	219.36906      	219.4121       	219.39233      	219.40138      	219.38495      	219.4134       	219.41846      	219.40022      	219.41454      	219.45615      	219.43076      	219.50926      	219.32501      	219.42262      	219.4164       	219.38972      	219.3828       	219.38058      	219.40932      	219.3858       	219.39142      	219.39816      	
220.00084      	219.99797      	220.0172       	220.01712      	219.99         	220.00922      	220.00798      	220.03217      	220.02902      	220.07323      	220.02905      	220.05266      	220.04442      	220.06607      	220.05785      	220.06163      	220.07901      	220.0635       	220.06944      	220.1032       	220.08339      	220.09856      	220.07007      	220.08192      	220.09239      	220.1015       	220.08054      	220.0882       	219.99168      	220.10532      	220.07591      	220.09193      	220.06696      	220.10341      	220.10278      	220.12372      	220.1116       	220.11313      	220.15347      	220.1547       	220.13777      	220.16946      	220.18405      	220.1844       	220.20749      	220.191        	220.20189      	220.21332      	220.21991      	220.22133      	220.24644      	220.23862      	220.21468      	220.2413       	220.25073      	220.26855      	220.30496      	220.30075      	220.25294      	220.15944      	220.29965      	220.31845      	220.31818      	220.31134      	220.3382       	220.35374      	220.3393       	220.38332      	220.38487      	220.37106      	220.3396       	220.34999      	220.35452      	220.3472       	220.4053       	220.39374      	220.41269      	220.43076      	220.391        	220.42226      	220.3983       	220.42404      	220.41707      	220.39865      	220.45335      	220.44547      	220.46706      	220.44142      	220.49069      	220.3492       	220.392        	220.4783       	220.49211      	220.4877       	220.50839      	220.47942      	220.4734       	220.48753      	220.5187       	220.51569      	
221.14374      	221.12752      	221.15823      	221.16556      	221.14041      	221.13889      	221.14143      	221.13107      	221.16713      	221.15031      	221.16258      	221.16577      	221.16203      	221.14548      	221.12962      	221.15897      	221.1568       	221.2045       	221.19911      	221.1673       	221.16107      	221.17131      	221.19711      	221.18341      	221.18797      	221.21144      	221.21695      	221.206        	221.08165      	221.18074      	221.15256      	221.17038      	221.19719      	221.19003      	221.1952       	221.19351      	221.22435      	221.20442      	221.24232      	221.19377      	221.20438      	221.1896       	221.21962      	221.23668      	221.17961      	221.21288      	221.211        	221.2044       	221.18031      	221.23741      	221.20598      	221.211        	221.18425      	221.21323      	221.20859      	221.22142      	221.21947      	221.25803      	221.1697       	221.06322      	221.18796      	221.25433      	221.2557       	221.29459      	221.25879      	221.25133      	221.27277      	221.26472      	221.25792      	221.23566      	221.24113      	221.2591       	221.2521       	221.21707      	221.22491      	221.2305       	221.16748      	221.18544      	221.21408      	221.24934      	221.27292      	221.27798      	221.30403      	221.29672      	221.24289      	221.22658      	221.17892      	221.22884      	221.24655      	221.20517      	221.1138       	221.23486      	221.20815      	221.19614      	221.1972       	221.20148      	221.19533      	221.20824      	221.23367      	221.22859      	
221.04314      	221.01187      	221.01161      	221.03133      	221.03421      	221.02603      	221.03273      	221.09303      	221.07396      	221.07993      	221.04332      	221.02333      	221.01308      	220.95776      	220.99681      	220.99771      	220.98068      	220.98114      	220.99696      	221.01784      	221.00766      	220.99652      	220.94466      	220.95587      	220.93016      	220.90073      	220.94662      	220.97108      	220.8465       	220.90848      	220.90758      	220.91316      	220.87894      	220.88292      	220.87778      	220.89487      	220.87503      	220.86989      	220.87018      	220.87994      	220.85861      	220.86028      	220.8474       	220.84319      	220.8488       	220.84201      	220.833        	220.87625      	220.83372      	220.8635       	220.84032      	220.82066      	220.84996      	220.81242      	220.87308      	220.84099      	220.82098      	220.82861      	220.78546      	220.6906       	220.81822      	220.84529      	220.86214      	220.84407      	220.87074      	220.8444       	220.82845      	220.85037      	220.80695      	220.83917      	220.89137      	220.8727       	220.87595      	220.8411       	220.84587      	220.81247      	220.82047      	220.82172      	220.79466      	220.81651      	220.7882       	220.80836      	220.79909      	220.78261      	220.76639      	220.75572      	220.70776      	220.74         	220.69572      	220.65158      	220.61554      	220.70271      	220.68826      	220.68855      	220.69896      	220.66544      	220.6857       	220.65228      	220.6818       	220.64859      	
220.4677       	220.45485      	220.46938      	220.46071      	220.4556       	220.43967      	220.47276      	220.50162      	220.46864      	220.47015      	220.48454      	220.47977      	220.4988       	220.47127      	220.45958      	220.47011      	220.44196      	220.4244       	220.42238      	220.42624      	220.41893      	220.4205       	220.44214      	220.38306      	220.44116      	220.44215      	220.40506      	220.48904      	220.30515      	220.34023      	220.36351      	220.38315      	220.37955      	220.39365      	220.36865      	220.40009      	220.35345      	220.39394      	220.37448      	220.36119      	220.38405      	220.39879      	220.38132      	220.36575      	220.39056      	220.36801      	220.38168      	220.37305      	220.36578      	220.38037      	220.34888      	220.38333      	220.33255      	220.35728      	220.38289      	220.29085      	220.37416      	220.37271      	220.34828      	220.2031       	220.28662      	220.42015      	220.44199      	220.40358      	220.4134       	220.42162      	220.40623      	220.40633      	220.39836      	220.39836      	220.42264      	220.37863      	220.38672      	220.38837      	220.37125      	220.41496      	220.36893      	220.38126      	220.36588      	220.38646      	220.38713      	220.37775      	220.36452      	220.35239      	220.35704      	220.34706      	220.33632      	220.36786      	220.35297      	220.41896      	220.28026      	220.32034      	220.27919      	220.30534      	220.30588      	220.30681      	220.31053      	220.31975      	220.31432      	220.30507      	
220.68716      	220.70782      	220.71509      	220.70888      	220.71117      	220.70709      	220.70296      	220.71988      	220.78484      	220.74164      	220.69955      	220.70134      	220.74037      	220.74211      	220.73715      	220.72014      	220.71683      	220.7136       	220.67825      	220.70818      	220.69766      	220.71349      	220.69824      	220.69115      	220.7067       	220.66861      	220.6964       	220.7381       	220.6137       	220.67955      	220.66774      	220.67555      	220.69         	220.67343      	220.6919       	220.68053      	220.66444      	220.69841      	220.68626      	220.6543       	220.7098       	220.6741       	220.6774       	220.67899      	220.6866       	220.73769      	220.65915      	220.71214      	220.6844       	220.71043      	220.70905      	220.70433      	220.73186      	220.69383      	220.74382      	220.72227      	220.70087      	220.73196      	220.67595      	220.55206      	220.69308      	220.73221      	220.76562      	220.72366      	220.74323      	220.74937      	220.74162      	220.7194       	220.72227      	220.73428      	220.74138      	220.73282      	220.74266      	220.74086      	220.74396      	220.74498      	220.7765       	220.75229      	220.74937      	220.75726      	220.77707      	220.7562       	220.75697      	220.79514      	220.72833      	220.75682      	220.7912       	220.7788       	220.75327      	220.76744      	220.66064      	220.79247      	220.7535       	220.75497      	220.7967       	220.77434      	220.77895      	220.74065      	220.75014      	220.7523       	
220.98167      	220.9216       	220.9383       	220.94618      	220.95114      	220.93465      	220.91647      	220.88976      	220.91853      	220.93204      	220.89412      	220.90135      	220.91861      	220.92683      	220.91379      	220.90715      	220.88686      	220.90761      	220.90793      	220.88925      	220.9117       	220.93317      	220.91765      	220.93077      	220.94095      	220.88681      	220.9217       	220.93849      	220.84373      	220.90039      	220.85216      	220.85243      	220.84946      	220.87503      	220.86221      	220.87119      	220.85696      	220.87253      	220.85326      	220.88576      	220.87149      	220.87091      	220.86848      	220.86703      	220.84787      	220.882        	220.87521      	220.87857      	220.85579      	220.83849      	220.81999      	220.86433      	220.85718      	220.84679      	220.84215      	220.851        	220.8348       	220.83482      	220.86725      	220.70753      	220.86694      	220.88809      	220.87851      	220.86588      	220.88791      	220.8891       	220.87532      	220.88963      	220.86041      	220.85866      	220.85359      	220.84744      	220.85027      	220.88786      	220.83992      	220.86588      	220.86758      	220.88165      	220.869        	220.8343       	220.83157      	220.80609      	220.77773      	220.79576      	220.80428      	220.83583      	220.80309      	220.78433      	220.86502      	220.8265       	220.72789      	220.80759      	220.8029       	220.78323      	220.76828      	220.77637      	220.8335       	220.77425      	220.77452      	220.78575      	
220.39993      	220.39851      	220.38933      	220.39413      	220.40276      	220.39632      	220.36636      	220.33675      	220.37697      	220.37637      	220.34589      	220.36298      	220.3578       	220.34515      	220.34569      	220.32161      	220.33835      	220.31586      	220.3308       	220.32005      	220.315        	220.3212       	220.30006      	220.27997      	220.30093      	220.26529      	220.25897      	220.3729       	220.2206       	220.23935      	220.24176      	220.22208      	220.21942      	220.23326      	220.22394      	220.20233      	220.23953      	220.20746      	220.19252      	220.21738      	220.18938      	220.2287       	220.19098      	220.19391      	220.18219      	220.18352      	220.15105      	220.15668      	220.15494      	220.14874      	220.13382      	220.1447       	220.12344      	220.11897      	220.13564      	220.14386      	220.11151      	220.12915      	220.1131       	219.94435      	220.01457      	220.14105      	220.15826      	220.17262      	220.17805      	220.15977      	220.1477       	220.18639      	220.1411       	220.15256      	220.13759      	220.13145      	220.12177      	220.11407      	220.11848      	220.0845       	220.11935      	220.09691      	220.08723      	220.1011       	220.0865       	220.09496      	220.07245      	220.06577      	220.07462      	220.04384      	220.07446      	220.07715      	220.03165      	219.9785       	219.88023      	220.01361      	219.98099      	219.968        	219.98102      	219.99948      	219.99216      	220.00139      	219.9914       	219.94336      	
219.74586      	219.73964      	219.75603      	219.7431       	219.73375      	219.76231      	219.7816       	219.76642      	219.73503      	219.74152      	219.76326      	219.77142      	219.75174      	219.75339      	219.74669      	219.72314      	219.73595      	219.7595       	219.74178      	219.72281      	219.73566      	219.70758      	219.71022      	219.73926      	219.74081      	219.7473       	219.74399      	219.71292      	219.5901       	219.69046      	219.69977      	219.67026      	219.70522      	219.69035      	219.69342      	219.69614      	219.68117      	219.72513      	219.69035      	219.6926       	219.69621      	219.68205      	219.71184      	219.68224      	219.68182      	219.6918       	219.68907      	219.70456      	219.68973      	219.71774      	219.69882      	219.70206      	219.66354      	219.65291      	219.62265      	219.6332       	219.6316       	219.62099      	219.61893      	219.46237      	219.66032      	219.70093      	219.70804      	219.68758      	219.68564      	219.68513      	219.69772      	219.7026       	219.67937      	219.71283      	219.67567      	219.704        	219.71223      	219.68158      	219.70897      	219.71306      	219.68536      	219.7124       	219.6958       	219.72054      	219.7579       	219.72545      	219.72116      	219.72646      	219.7621       	219.77043      	219.78062      	219.70476      	219.71753      	219.72687      	219.60384      	219.70132      	219.68504      	219.68327      	219.67043      	219.70416      	219.68712      	219.70607      	219.6508       	219.64363      	
219.67955      	219.69965      	219.71169      	219.69969      	219.70752      	219.71892      	219.72325      	219.72789      	219.76405      	219.74771      	219.74295      	219.7084       	219.74641      	219.73405      	219.73997      	219.7306       	219.74585      	219.75717      	219.69719      	219.71028      	219.73804      	219.7347       	219.74713      	219.70784      	219.70988      	219.74692      	219.72063      	219.73355      	219.62967      	219.72322      	219.74403      	219.73106      	219.70985      	219.72215      	219.70432      	219.69272      	219.70978      	219.74307      	219.7303       	219.74756      	219.70721      	219.72878      	219.73828      	219.74257      	219.71533      	219.71298      	219.71754      	219.73744      	219.70668      	219.73601      	219.73233      	219.72324      	219.73961      	219.7062       	219.72331      	219.72159      	219.77457      	219.74596      	219.73256      	219.611        	219.66977      	219.7869       	219.78806      	219.80775      	219.75877      	219.74477      	219.77994      	219.76822      	219.80478      	219.78775      	219.77626      	219.81424      	219.81242      	219.79947      	219.77402      	219.80063      	219.80486      	219.80263      	219.858        	219.8236       	219.84763      	219.80466      	219.83914      	219.82812      	219.84798      	219.83987      	219.82983      	219.80093      	219.84724      	219.82445      	219.70149      	219.81432      	219.81448      	219.7704       	219.81076      	219.79645      	219.76895      	219.78424      	219.78442      	219.77066      	
219.98859      	220.00912      	220.0126       	220.0066       	219.9541       	219.94176      	219.93604      	219.92546      	219.97235      	219.90814      	219.92677      	220.00186      	219.92123      	219.96948      	219.95401      	219.93408      	219.96028      	219.94049      	219.94238      	219.99332      	219.95906      	219.93716      	219.93874      	219.9485       	219.94937      	219.9719       	219.97217      	219.95999      	219.84276      	219.97444      	219.94272      	219.95825      	219.98152      	219.94247      	219.96547      	220.00911      	219.98314      	220.01244      	219.99178      	219.95082      	219.99252      	219.9868       	219.96117      	219.98161      	219.98561      	219.98843      	219.9758       	219.96657      	220.00003      	219.99088      	219.98277      	219.97841      	220.00648      	220.01009      	219.9525       	219.98766      	219.96324      	219.98749      	219.95192      	219.87245      	220.0346       	220.05667      	220.02719      	220.03426      	220.04094      	220.015        	220.0434       	220.04004      	220.02548      	220.0497       	220.05423      	220.06177      	220.06549      	219.99977      	220.01146      	220.00171      	219.99615      	220.01872      	220.00128      	219.99127      	219.98836      	220.02058      	220.01018      	220.0231       	220.01846      	219.98676      	220.00383      	220.00426      	220.01099      	219.95567      	219.84294      	219.98175      	219.96657      	219.9584       	219.96152      	219.96803      	219.98444      	219.9887       	219.99435      	219.98337      	
220.11073      	220.0973       	220.108        	220.13058      	220.11765      	220.13924      	220.15424      	220.16872      	220.17569      	220.12326      	220.12384      	220.145        	220.12123      	220.11273      	220.13235      	220.1385       	220.10666      	220.16393      	220.18123      	220.16046      	220.17885      	220.10188      	220.11794      	220.1642       	220.15895      	220.16432      	220.14389      	220.17548      	220.05336      	220.06877      	220.10675      	220.04417      	220.07918      	220.1106       	220.10025      	220.13573      	220.11217      	220.10025      	220.10442      	220.0945       	220.13864      	220.14967      	220.11855      	220.11688      	220.10777      	220.1057       	220.11087      	220.12541      	220.1174       	220.12158      	220.13268      	220.14821      	220.12909      	220.14093      	220.12958      	220.14227      	220.15707      	220.21837      	220.1844       	219.98996      	220.0193       	220.16632      	220.14914      	220.16081      	220.1447       	220.12486      	220.13768      	220.15993      	220.15817      	220.178        	220.16458      	220.18317      	220.19073      	220.23495      	220.1882       	220.16658      	220.19896      	220.17125      	220.16148      	220.18907      	220.1702       	220.16891      	220.17245      	220.19516      	220.1863       	220.1616       	220.20679      	220.18637      	220.2088       	220.17586      	220.01476      	220.16135      	220.16814      	220.17564      	220.13718      	220.19493      	220.22084      	220.19269      	220.20181      	220.15294      	
220.09555      	220.08162      	220.10342      	220.09445      	220.09451      	220.07791      	220.05435      	220.07236      	220.10135      	220.06195      	220.08632      	220.06348      	220.06703      	220.10027      	220.06984      	220.08694      	220.06032      	220.07657      	220.08376      	220.07542      	220.09367      	220.04295      	220.0445       	220.02884      	220.01556      	220.06778      	220.04137      	220.02936      	219.88927      	219.99681      	219.99753      	219.99881      	220.01315      	220.052        	220.0319       	220.05746      	220.0198       	220.04166      	220.05048      	220.0231       	220.02896      	220.03061      	220.02626      	220.03561      	220.05647      	220.03651      	219.99718      	220.03685      	220.0182       	220.01234      	220.02823      	220.0366       	220.01869      	220.03873      	220.04077      	220.06918      	220.06012      	220.079        	220.05779      	219.85686      	219.97142      	220.08998      	220.09312      	220.09807      	220.05634      	220.07156      	220.03133      	220.03952      	220.04234      	220.04774      	220.05908      	220.06973      	220.07512      	220.07211      	220.07916      	220.08763      	220.08974      	220.11977      	220.06764      	220.07892      	220.03484      	220.07693      	220.10718      	220.09096      	220.0727       	220.02272      	220.02444      	220.01343      	220.048        	220.003        	219.92142      	219.98428      	219.9863       	219.98558      	219.98836      	219.98007      	219.99269      	220.02888      	219.98323      	219.99525      	
219.91513      	219.91716      	219.90642      	219.89044      	219.92836      	219.90431      	219.93913      	219.93066      	219.91962      	219.88512      	219.905        	219.91005      	219.8775       	219.91098      	219.89987      	219.87314      	219.88103      	219.89713      	219.88144      	219.85815      	219.87117      	219.87823      	219.85788      	219.84294      	219.8338       	219.85812      	219.86124      	219.91504      	219.69736      	219.83849      	219.81168      	219.81424      	219.80402      	219.82538      	219.82373      	219.81682      	219.82854      	219.81491      	219.82652      	219.81703      	219.80673      	219.8403       	219.82103      	219.79645      	219.82478      	219.81589      	219.83958      	219.8137       	219.79295      	219.8041       	219.8165       	219.83096      	219.83806      	219.88364      	219.862        	219.89337      	219.86247      	219.8545       	219.82318      	219.66159      	219.78946      	219.87173      	219.9059       	219.87111      	219.8575       	219.84914      	219.8834       	219.87042      	219.86021      	219.87054      	219.86734      	219.83578      	219.83092      	219.83192      	219.84325      	219.82632      	219.8091       	219.81795      	219.84518      	219.81435      	219.78679      	219.8113       	219.78792      	219.83617      	219.84174      	219.83705      	219.85042      	219.85318      	219.81323      	219.77945      	219.67169      	219.82512      	219.81253      	219.82785      	219.82771      	219.80472      	219.81981      	219.81697      	219.8233       	219.81348      	
220.03102      	219.98924      	219.98668      	220.02554      	220.0428       	220.02086      	220.01703      	220.04323      	220.02881      	220.0005       	220.02597      	220.03383      	220.02594      	220.03976      	220.01294      	220.02254      	220.01215      	219.97606      	220.00063      	220.00526      	219.96478      	219.85875      	219.89256      	219.99992      	220.00766      	219.98407      	220.04433      	219.99567      	219.92142      	220.00627      	220.02654      	220.01193      	219.99867      	220.00426      	220.05026      	220.05925      	220.06415      	220.02321      	220.07742      	220.03589      	220.09137      	220.07356      	220.05186      	220.03441      	220.0568       	220.07042      	220.03326      	220.05624      	220.04662      	220.06683      	220.0709       	220.06361      	220.07616      	220.04778      	220.08392      	220.07193      	220.0993       	220.1259       	220.08864      	220.00111      	220.01106      	220.14377      	220.13087      	220.11957      	220.13449      	220.17116      	220.15202      	220.1739       	220.13869      	220.15565      	220.16559      	220.13976      	220.17142      	220.16187      	220.15381      	220.18163      	220.18932      	220.19205      	220.1693       	220.17906      	220.1776       	220.17653      	220.19458      	220.15666      	220.18044      	220.20485      	220.19875      	220.19318      	220.2064       	220.2254       	220.16962      	220.13354      	220.18634      	220.1862       	220.1625       	220.20207      	220.15024      	220.15863      	220.13858      	220.21477      	
220.7285       	220.71243      	220.72314      	220.71112      	220.69456      	220.70668      	220.72202      	220.73431      	220.739        	220.76546      	220.77643      	220.7885       	220.78387      	220.80421      	220.80203      	220.82803      	220.80658      	220.82127      	220.82863      	220.8198       	220.83919      	220.86082      	220.84457      	220.84581      	220.82184      	220.81638      	220.86304      	220.87267      	220.75642      	220.84506      	220.853        	220.84465      	220.84023      	220.85638      	220.86385      	220.87811      	220.86554      	220.89322      	220.91245      	220.87053      	220.85156      	220.8422       	220.86636      	220.90366      	220.85571      	220.80112      	220.89333      	220.87332      	220.8797       	220.9161       	220.92453      	220.92497      	220.88132      	220.90744      	220.93262      	220.93265      	220.92204      	220.92601      	220.89243      	220.72508      	220.89355      	220.97151      	220.95746      	220.9662       	220.98216      	220.97621      	220.97186      	220.98683      	220.96854      	221.0082       	220.97397      	220.99104      	221.01508      	220.97513      	221.01378      	220.99661      	220.96614      	220.96693      	220.93118      	220.9827       	220.97263      	220.99258      	220.98346      	220.97314      	220.97313      	221.00282      	221.04282      	221.01144      	221.00412      	221.04881      	220.88695      	221.01132      	221.00992      	221.02448      	220.98038      	221.01985      	221.12697      	221.04662      	221.0944       	221.06232      	
221.23314      	221.22672      	221.22684      	221.24393      	221.25778      	221.2446       	221.23526      	221.24759      	221.24562      	221.22226      	221.24234      	221.24962      	221.2307       	221.21738      	221.23225      	221.22694      	221.24202      	221.23567      	221.22363      	221.20326      	221.20888      	221.22931      	221.22067      	221.24925      	221.22284      	221.25552      	221.25795      	221.27814      	221.14658      	221.22238      	221.20297      	221.26846      	221.2588       	221.29256      	221.26666      	221.21432      	221.2692       	221.2592       	221.22372      	221.25032      	221.22292      	221.1896       	221.19833      	221.22476      	221.22057      	221.1815       	221.23706      	221.26546      	221.2319       	221.23671      	221.22183      	221.22447      	221.21811      	221.23378      	221.21916      	221.17738      	221.18471      	221.18536      	221.1892       	221.04543      	221.05495      	221.18678      	221.21503      	221.21599      	221.2357       	221.21593      	221.20102      	221.18515      	221.18292      	221.21022      	221.17516      	221.18837      	221.17952      	221.21516      	221.20515      	221.22418      	221.22899      	221.2163       	221.26318      	221.20859      	221.21323      	221.24576      	221.27415      	221.25372      	221.2531       	221.24821      	221.24997      	221.23543      	221.25426      	221.24362      	221.05235      	221.21349      	221.21565      	221.27591      	221.20497      	221.19493      	221.19276      	221.22418      	221.23207      	221.18138      	
220.77734      	220.76993      	220.7356       	220.73534      	220.72339      	220.7569       	220.75381      	220.7245       	220.7405       	220.71104      	220.75066      	220.75424      	220.7586       	220.78865      	220.7557       	220.78654      	220.77408      	220.76181      	220.7727       	220.77937      	220.78046      	220.78279      	220.76857      	220.74591      	220.73576      	220.78049      	220.75333      	220.76994      	220.64966      	220.76329      	220.71385      	220.73866      	220.76073      	220.71997      	220.7449       	220.69469      	220.67532      	220.65521      	220.64049      	220.63626      	220.62411      	220.6218       	220.63095      	220.61623      	220.6018       	220.6077       	220.61118      	220.5936       	220.57503      	220.5882       	220.59383      	220.55997      	220.57498      	220.59142      	220.594        	220.55615      	220.52701      	220.5504       	220.55005      	220.41568      	220.38675      	220.55905      	220.55844      	220.57904      	220.54411      	220.56534      	220.54645      	220.53328      	220.53558      	220.54103      	220.5322       	220.5305       	220.54074      	220.52695      	220.49854      	220.54199      	220.49615      	220.49634      	220.47256      	220.4767       	220.51541      	220.48956      	220.51643      	220.49641      	220.47177      	220.49664      	220.45836      	220.46962      	220.48402      	220.4371       	220.3314       	220.43756      	220.42244      	220.39786      	220.41594      	220.43791      	220.42195      	220.43222      	220.4206       	220.39923      	
220.31956      	220.32013      	220.31525      	220.29047      	220.3012       	220.3374       	220.30429      	220.30052      	220.3138       	220.28014      	220.30566      	220.28537      	220.29837      	220.30157      	220.29768      	220.32089      	220.31427      	220.35838      	220.34148      	220.29794      	220.32489      	220.31146      	220.29672      	220.30724      	220.31862      	220.31882      	220.29881      	220.36784      	220.15959      	220.2766       	220.28174      	220.27733      	220.29929      	220.25496      	220.26833      	220.28343      	220.25768      	220.25954      	220.3165       	220.23985      	220.31778      	220.30328      	220.32481      	220.35428      	220.30354      	220.32196      	220.32614      	220.35571      	220.32396      	220.28613      	220.3402       	220.31017      	220.30089      	220.28563      	220.29347      	220.24367      	220.27574      	220.32         	220.25261      	220.15192      	220.21486      	220.32439      	220.31525      	220.31519      	220.33351      	220.31187      	220.27939      	220.2877       	220.30777      	220.2866       	220.29002      	220.32324      	220.30943      	220.3497       	220.34865      	220.33876      	220.34435      	220.30882      	220.30931      	220.3091       	220.30228      	220.30019      	220.3125       	220.29062      	220.26239      	220.28671      	220.27374      	220.26608      	220.27695      	220.29684      	220.17833      	220.26263      	220.25174      	220.24327      	220.2537       	220.30145      	220.2893       	220.25587      	220.24286      	220.2451       	
220.33017      	220.33841      	220.36401      	220.35521      	220.32909      	220.3262       	220.34793      	220.34247      	220.36813      	220.33038      	220.34792      	220.34431      	220.31784      	220.36623      	220.34532      	220.3005       	220.32053      	220.35336      	220.40138      	220.3697       	220.37245      	220.38626      	220.3457       	220.37029      	220.40144      	220.37769      	220.36649      	220.39423      	220.27605      	220.36752      	220.36507      	220.35886      	220.38069      	220.37273      	220.38174      	220.3719       	220.37213      	220.40005      	220.38158      	220.37926      	220.40804      	220.42543      	220.39328      	220.37938      	220.3862       	220.40349      	220.41518      	220.3797       	220.39793      	220.41344      	220.41821      	220.40294      	220.42758      	220.42513      	220.45622      	220.45404      	220.43875      	220.40527      	220.38763      	220.31038      	220.23178      	220.44952      	220.42328      	220.41586      	220.42303      	220.41428      	220.45609      	220.46664      	220.47656      	220.49617      	220.5201       	220.46582      	220.48657      	220.4748       	220.4752       	220.49455      	220.48456      	220.46829      	220.42972      	220.4458       	220.41849      	220.4523       	220.46443      	220.42142      	220.423        	220.41425      	220.4074       	220.4515       	220.44339      	220.4147       	220.19377      	220.19981      	220.19276      	220.19978      	220.25153      	220.28188      	220.28738      	220.29544      	220.32777      	220.3544       	
220.62943      	220.65863      	220.66139      	220.6686       	220.64935      	220.65163      	220.64023      	220.64499      	220.65482      	220.63878      	220.66098      	220.68243      	220.66953      	220.68156      	220.68466      	220.69484      	220.68741      	220.6898       	220.739        	220.708        	220.7071       	220.68349      	220.71042      	220.71153      	220.7099       	220.73471      	220.69589      	220.73825      	220.66437      	220.6136       	220.6799       	220.63882      	220.60292      	220.59323      	220.60938      	220.6573       	220.70023      	220.65681      	220.70853      	220.69434      	220.64728      	220.65256      	220.6763       	220.6594       	220.57007      	220.55777      	220.63498      	220.60675      	220.58073      	220.608        	220.5991       	220.57635      	220.54584      	220.57611      	220.58813      	220.56007      	220.58424      	220.6715       	220.59152      	220.61198      	220.87926      	220.98158      	220.98187      	220.9107       	220.85426      	220.872        	220.82648      	220.83047      	220.84555      	220.84589      	220.88478      	220.82814      	220.87148      	220.88477      	220.86269      	220.86197      	220.87717      	220.8849       	220.90823      	220.88089      	220.90854      	220.91975      	220.88634      	220.92708      	220.87848      	220.95297      	220.98814      	220.96849      	220.95142      	220.93126      	220.94102      	220.96278      	220.9667       	220.96664      	221.02477      	220.97559      	220.83797      	220.80995      	220.82013      	220.80618      	
220.98528      	221.01857      	221.0293       	221.01465      	221.00896      	220.98244      	220.99234      	220.98445      	220.98212      	220.98236      	220.95139      	220.94531      	220.96144      	220.97145      	220.94287      	220.97925      	220.95627      	220.97043      	220.98024      	220.91919      	220.95863      	220.89835      	220.9174       	220.96396      	220.9309       	220.97215      	221.00478      	220.98111      	220.97372      	221.00319      	220.85802      	220.9607       	220.93826      	220.94423      	220.9907       	221.01692      	220.93227      	220.97884      	220.84357      	220.95844      	220.979        	220.97974      	220.97919      	220.97983      	220.99617      	220.98392      	220.98245      	220.96443      	220.98257      	220.9822       	220.92188      	220.95996      	220.94565      	220.94191      	220.94266      	220.91522      	220.93146      	220.96962      	220.94531      	220.91693      	220.96266      	220.95047      	220.92575      	220.96901      	220.92903      	220.93951      	220.96207      	220.97784      	220.96188      	220.95451      	220.89313      	220.88803      	220.90633      	220.88966      	220.89671      	220.88435      	220.89008      	220.91953      	220.90634      	220.90338      	220.89746      	220.92728      	220.91463      	220.9549       	220.94638      	220.93967      	220.89642      	220.88844      	220.90231      	220.86946      	220.92113      	220.92432      	220.90736      	220.92987      	220.88805      	220.93742      	221.01141      	220.83835      	220.76044      	220.76625      	
220.92506      	220.91716      	220.91225      	220.9322       	220.91876      	220.92961      	220.93823      	220.9055       	220.91568      	220.91458      	220.9179       	220.905        	220.91173      	220.9514       	220.95912      	220.95107      	220.93106      	220.92206      	220.9465       	220.9758       	220.99167      	220.97694      	220.95773      	220.95215      	220.97816      	220.93822      	220.9578       	220.97604      	220.94823      	220.9598       	220.93123      	220.94814      	220.92996      	220.94408      	220.92197      	220.90692      	220.94923      	220.95435      	220.93854      	220.95728      	220.93979      	220.92464      	220.95198      	220.95645      	220.95352      	220.94357      	220.94353      	220.9174       	220.95508      	220.91188      	220.92596      	220.94002      	220.90146      	220.95117      	220.93896      	220.92896      	220.90706      	220.90456      	220.91745      	220.89828      	220.90988      	220.90248      	220.90775      	220.91928      	220.92453      	220.89896      	220.88197      	220.9043       	220.88875      	220.89714      	220.87262      	220.88011      	220.88754      	220.87741      	220.87747      	220.87704      	220.87004      	220.86436      	220.8718       	220.89374      	220.86304      	220.88678      	220.89586      	220.91339      	220.88371      	220.87866      	220.85228      	220.89525      	220.87787      	220.85988      	220.84523      	220.84862      	220.83664      	220.83853      	220.8365       	220.84796      	220.82281      	220.85126      	220.87572      	220.86134      	
220.55492      	220.53702      	220.52493      	220.51984      	220.53265      	220.53888      	220.53302      	220.50798      	220.50188      	220.52148      	220.54698      	220.52072      	220.54395      	220.50804      	220.51044      	220.47318      	220.48839      	220.50221      	220.56062      	220.52759      	220.50082      	220.49142      	220.4768       	220.4595       	220.49496      	220.47772      	220.45299      	220.47525      	220.48859      	220.47803      	220.48643      	220.47144      	220.44972      	220.47667      	220.48746      	220.52028      	220.53102      	220.49875      	220.47394      	220.44875      	220.46925      	220.44264      	220.42804      	220.45973      	220.4278       	220.44363      	220.43509      	220.424        	220.38239      	220.39192      	220.39288      	220.41617      	220.42592      	220.3845       	220.39972      	220.41512      	220.40584      	220.3906       	220.3745       	220.39445      	220.36856      	220.37296      	220.40047      	220.3758       	220.38622      	220.3841       	220.37794      	220.38441      	220.37904      	220.36823      	220.3642       	220.3744       	220.34433      	220.36366      	220.38469      	220.37721      	220.37915      	220.38234      	220.39053      	220.36867      	220.36563      	220.33095      	220.36539      	220.31776      	220.3653       	220.3326       	220.34375      	220.36209      	220.36433      	220.38783      	220.32297      	220.32306      	220.39285      	220.3458       	220.42091      	220.34874      	220.35408      	220.35146      	220.34055      	220.34131      	
220.15137      	220.12706      	220.13368      	220.11786      	220.11043      	220.13321      	220.1339       	220.11948      	220.16583      	220.1498       	220.13466      	220.17694      	220.11368      	220.119        	220.0879       	220.08943      	220.11559      	220.13153      	220.10263      	220.10985      	220.13272      	220.12802      	220.1334       	220.09904      	220.1138       	220.13023      	220.08865      	220.09085      	220.11021      	220.06293      	220.08359      	220.08617      	220.0801       	220.08083      	220.09364      	220.08392      	220.04315      	220.09848      	220.04706      	220.05002      	220.05379      	220.07277      	220.08708      	220.03822      	220.04784      	220.03989      	220.02637      	219.99896      	220.02272      	219.99998      	220.01715      	220.01878      	220.0197       	220.00746      	220.02654      	219.97618      	219.98245      	219.96599      	219.9841       	220.02197      	220.01158      	219.97552      	220.00652      	220.00269      	220.00568      	219.99887      	219.97731      	219.98404      	219.98029      	219.95795      	219.95518      	219.99242      	219.96532      	220.0057       	219.97171      	219.95416      	219.99498      	219.96533      	219.98605      	219.94516      	219.98212      	219.98009      	219.97826      	219.97035      	219.95282      	219.96924      	219.94786      	219.95302      	219.95702      	219.93324      	219.96019      	219.9579       	219.96532      	219.95482      	219.91579      	219.9404       	219.938        	219.9545       	219.94632      	219.95248      	
219.84044      	219.83864      	219.85962      	219.86276      	219.88509      	219.88913      	219.87534      	219.86028      	219.85965      	219.85233      	219.85812      	219.86713      	219.86209      	219.87918      	219.87102      	219.87035      	219.87479      	219.8614       	219.84352      	219.87848      	219.8589       	219.84262      	219.88924      	219.84041      	219.87083      	219.85313      	219.85179      	219.86649      	219.89752      	219.86002      	219.878        	219.84952      	219.88602      	219.84108      	219.8479       	219.84903      	219.82828      	219.84955      	219.89972      	219.91681      	219.85724      	219.87396      	219.84985      	219.88417      	219.86604      	219.89125      	219.84735      	219.87827      	219.85065      	219.87633      	219.84561      	219.84494      	219.87297      	219.84547      	219.83765      	219.85802      	219.85318      	219.83667      	219.84747      	219.81322      	219.85912      	219.84071      	219.82565      	219.8365       	219.83002      	219.83951      	219.85565      	219.84375      	219.82413      	219.86003      	219.84491      	219.83806      	219.82265      	219.83746      	219.86319      	219.87978      	219.87335      	219.88525      	219.88797      	219.88065      	219.89174      	219.88461      	219.89297      	219.8358       	219.86363      	219.83363      	219.85783      	219.85669      	219.82594      	219.8417       	219.83624      	219.8514       	219.84065      	219.79991      	219.83998      	219.81749      	219.85228      	219.84732      	219.85289      	219.86914      	
219.82762      	219.817        	219.82265      	219.81721      	219.81784      	219.82973      	219.8098       	219.81659      	219.80917      	219.80563      	219.80536      	219.84424      	219.79897      	219.8295       	219.82982      	219.82433      	219.83148      	219.79997      	219.82924      	219.83102      	219.839        	219.82541      	219.83368      	219.8393       	219.84161      	219.83266      	219.80252      	219.8049       	219.84839      	219.83629      	219.81631      	219.82901      	219.79735      	219.81422      	219.81717      	219.80519      	219.81879      	219.81471      	219.80057      	219.82317      	219.86305      	219.85916      	219.81834      	219.77045      	219.82008      	219.8099       	219.81491      	219.84805      	219.77563      	219.80849      	219.79355      	219.81194      	219.824        	219.79533      	219.79503      	219.81451      	219.79584      	219.77858      	219.77098      	219.77586      	219.7705       	219.77252      	219.75789      	219.78635      	219.72711      	219.71829      	219.76433      	219.77213      	219.73706      	219.73927      	219.71696      	219.74974      	219.73077      	219.7788       	219.77776      	219.74818      	219.79483      	219.7355       	219.75984      	219.73065      	219.80437      	219.79443      	219.78499      	219.7592       	219.74232      	219.75287      	219.78484      	219.76251      	219.79079      	219.7828       	219.7582       	219.71617      	219.70743      	219.73862      	219.72849      	219.74493      	219.7242       	219.74806      	219.725        	219.68744      	
219.54227      	219.51555      	219.49367      	219.51295      	219.55394      	219.52196      	219.49403      	219.48036      	219.49057      	219.52602      	219.52107      	219.52075      	219.4905       	219.46828      	219.53645      	219.53714      	219.49376      	219.48563      	219.514        	219.46341      	219.43903      	219.45421      	219.44717      	219.46405      	219.46825      	219.44919      	219.47707      	219.4496       	219.44246      	219.46193      	219.4476       	219.44614      	219.47447      	219.43286      	219.45009      	219.44928      	219.44447      	219.46028      	219.43369      	219.42198      	219.4653       	219.44882      	219.44286      	219.42526      	219.46661      	219.42926      	219.44547      	219.46935      	219.47723      	219.47562      	219.48383      	219.47293      	219.47707      	219.46759      	219.45877      	219.46774      	219.43605      	219.4328       	219.44696      	219.43414      	219.44272      	219.42987      	219.42953      	219.44539      	219.41881      	219.45215      	219.448        	219.41032      	219.45145      	219.45467      	219.43143      	219.42435      	219.41531      	219.44827      	219.44138      	219.42838      	219.47122      	219.42995      	219.42142      	219.48917      	219.47089      	219.45485      	219.47095      	219.4541       	219.4671       	219.48729      	219.45277      	219.4451       	219.44272      	219.46158      	219.47874      	219.4518       	219.4641       	219.50278      	219.46996      	219.48926      	219.47827      	219.48152      	219.47044      	219.48024      	
219.46872      	219.49376      	219.48373      	219.49728      	219.51945      	219.52345      	219.50473      	219.52061      	219.52419      	219.49104      	219.48375      	219.4855       	219.48648      	219.4366       	219.43245      	219.47426      	219.41553      	219.44762      	219.45157      	219.45425      	219.43394      	219.47293      	219.45459      	219.48073      	219.47426      	219.47296      	219.44699      	219.4383       	219.44696      	219.4422       	219.44066      	219.42853      	219.4493       	219.45184      	219.45258      	219.47464      	219.48529      	219.44652      	219.45258      	219.49051      	219.48724      	219.45949      	219.46596      	219.44832      	219.46815      	219.45207      	219.45303      	219.47946      	219.45624      	219.46947      	219.4563       	219.48029      	219.4658       	219.44284      	219.45445      	219.41628      	219.45515      	219.42941      	219.4008       	219.46072      	219.4577       	219.48532      	219.44896      	219.43332      	219.47305      	219.45387      	219.45573      	219.47421      	219.461        	219.49707      	219.44801      	219.45352      	219.4616       	219.4852       	219.4785       	219.49414      	219.51804      	219.52347      	219.551        	219.5016       	219.49681      	219.49387      	219.5594       	219.54987      	219.54489      	219.51904      	219.58673      	219.59863      	219.54257      	219.57684      	219.57448      	219.59369      	219.54356      	219.52567      	219.53348      	219.5288       	219.55429      	219.52742      	219.50821      	219.51102      	
219.73357      	219.74112      	219.76186      	219.75827      	219.73029      	219.73186      	219.75122      	219.74359      	219.72247      	219.77103      	219.74536      	219.75674      	219.75201      	219.77968      	219.77368      	219.74121      	219.77435      	219.75377      	219.7618       	219.77759      	219.7768       	219.78876      	219.79808      	219.78647      	219.78131      	219.78104      	219.8008       	219.76053      	219.77905      	219.78009      	219.79843      	219.81473      	219.79001      	219.77574      	219.77737      	219.79135      	219.77948      	219.80795      	219.79234      	219.79343      	219.82072      	219.80045      	219.7984       	219.78024      	219.79935      	219.79662      	219.78516      	219.83751      	219.81755      	219.83762      	219.82655      	219.8186       	219.82701      	219.83154      	219.84348      	219.83177      	219.79466      	219.803        	219.814        	219.782        	219.8005       	219.7973       	219.80174      	219.82301      	219.84064      	219.82037      	219.81174      	219.78722      	219.80035      	219.78464      	219.82018      	219.82347      	219.8467       	219.85425      	219.89569      	219.90227      	219.90868      	219.85501      	219.84036      	219.82494      	219.84033      	219.8569       	219.84344      	219.84416      	219.87823      	219.8658       	219.87975      	219.85344      	219.87442      	219.8852       	219.88354      	219.87668      	219.88037      	219.88637      	219.90848      	219.90509      	219.91861      	219.96652      	219.91132      	219.93417      	
220.5102       	220.52818      	220.49051      	220.48605      	220.50172      	220.51295      	220.50543      	220.52563      	220.49928      	220.50119      	220.55153      	220.56247      	220.53233      	220.5472       	220.54802      	220.56369      	220.56436      	220.58688      	220.55861      	220.60158      	220.60368      	220.59842      	220.62465      	220.62352      	220.62704      	220.5993       	220.6347       	220.62186      	220.66628      	220.65454      	220.62865      	220.67789      	220.66193      	220.67365      	220.68456      	220.68057      	220.68529      	220.65292      	220.6986       	220.69656      	220.7477       	220.71263      	220.74268      	220.75381      	220.73274      	220.7545       	220.72406      	220.73514      	220.74724      	220.75381      	220.77873      	220.80313      	220.74608      	220.74594      	220.77054      	220.7694       	220.7823       	220.79579      	220.85663      	220.8104       	220.7953       	220.80707      	220.84229      	220.8387       	220.81975      	220.81276      	220.83366      	220.87534      	220.86977      	220.85425      	220.85085      	220.88504      	220.91364      	220.90567      	220.90294      	220.93475      	220.90186      	220.93073      	220.91644      	220.90411      	220.94302      	220.9323       	220.93376      	220.95622      	220.94879      	220.95934      	220.96214      	220.91682      	220.9411       	220.96028      	220.98811      	220.98737      	220.96136      	220.99083      	220.99046      	220.9991       	221.0534       	221.02109      	221.00955      	221.01343      	
221.3606       	221.37173      	221.3873       	221.34035      	221.38292      	221.38885      	221.38219      	221.39609      	221.39789      	221.38312      	221.38542      	221.42795      	221.4383       	221.42538      	221.39862      	221.46802      	221.42285      	221.4614       	221.46095      	221.46158      	221.48659      	221.46523      	221.48102      	221.4796       	221.47293      	221.50629      	221.484        	221.50766      	221.49098      	221.51028      	221.51732      	221.50893      	221.49577      	221.50285      	221.4886       	221.46791      	221.51407      	221.5062       	221.52263      	221.52525      	221.51392      	221.49078      	221.53578      	221.5174       	221.54245      	221.52884      	221.51044      	221.54918      	221.52159      	221.53006      	221.55246      	221.53326      	221.54544      	221.5344       	221.50803      	221.52525      	221.55804      	221.54694      	221.54501      	221.53345      	221.54793      	221.54674      	221.58363      	221.55354      	221.5066       	221.55565      	221.50188      	221.52997      	221.54762      	221.53773      	221.54742      	221.56407      	221.59354      	221.55374      	221.55827      	221.5589       	221.60902      	221.6102       	221.56447      	221.60408      	221.59744      	221.58493      	221.56528      	221.60213      	221.59845      	221.58157      	221.55533      	221.5849       	221.61757      	221.58597      	221.58559      	221.58311      	221.56487      	221.58961      	221.58096      	221.54135      	221.62027      	221.60541      	221.55206      	221.53775      	
221.2969       	221.26253      	221.2582       	221.25739      	221.24088      	221.22223      	221.22069      	221.20174      	221.21979      	221.23978      	221.25018      	221.24179      	221.20972      	221.22946      	221.24252      	221.20946      	221.21379      	221.22827      	221.20445      	221.20465      	221.2124       	221.22775      	221.21227      	221.19582      	221.21574      	221.24153      	221.24673      	221.22775      	221.209        	221.20964      	221.21286      	221.22247      	221.19351      	221.19965      	221.21428      	221.19794      	221.20609      	221.20663      	221.20874      	221.1889       	221.17511      	221.19426      	221.20438      	221.17805      	221.19992      	221.17758      	221.2147       	221.19547      	221.18251      	221.17978      	221.16086      	221.17595      	221.16243      	221.1658       	221.15576      	221.15953      	221.17528      	221.1444       	221.1881       	221.16594      	221.12132      	221.17609      	221.17526      	221.1386       	221.1738       	221.1821       	221.1395       	221.15324      	221.13954      	221.12181      	221.1425       	221.11653      	221.10962      	221.11893      	221.09256      	221.14024      	221.11247      	221.08548      	221.0926       	221.05103      	221.06496      	221.08455      	221.08485      	221.06561      	221.03741      	221.06923      	221.07376      	221.08592      	221.05437      	221.08855      	221.06322      	221.05095      	221.05406      	221.02098      	221.03914      	221.05019      	221.03523      	221.07797      	221.07997      	221.02574      	
220.55646      	220.552        	220.58821      	220.57579      	220.54686      	220.56136      	220.55371      	220.5613       	220.51659      	220.51784      	220.51129      	220.49522      	220.47011      	220.49225      	220.4993       	220.52477      	220.48184      	220.48415      	220.46274      	220.45338      	220.45428      	220.47621      	220.4317       	220.42502      	220.45291      	220.43234      	220.43994      	220.42152      	220.41165      	220.44507      	220.43666      	220.41512      	220.42868      	220.4083       	220.41702      	220.41312      	220.42755      	220.41615      	220.42484      	220.44366      	220.40375      	220.41273      	220.44638      	220.38805      	220.42543      	220.40309      	220.3928       	220.40135      	220.38898      	220.38751      	220.39114      	220.35915      	220.38135      	220.39883      	220.33775      	220.31793      	220.36496      	220.33424      	220.32484      	220.32474      	220.31363      	220.32805      	220.33537      	220.26782      	220.30116      	220.29338      	220.33537      	220.3252       	220.31781      	220.28757      	220.29727      	220.27695      	220.27438      	220.30672      	220.26506      	220.25505      	220.28215      	220.22304      	220.25095      	220.23907      	220.22507      	220.22987      	220.23169      	220.23933      	220.22795      	220.22647      	220.20206      	220.2238       	220.22923      	220.21777      	220.21837      	220.19678      	220.20314      	220.2121       	220.16225      	220.15886      	220.18056      	220.2042       	220.1926       	220.2063       	
220.21634      	220.2154       	220.2081       	220.23032      	220.25058      	220.25473      	220.1796       	220.21446      	220.22897      	220.20158      	220.22485      	220.24075      	220.2447       	220.2286       	220.2203       	220.23601      	220.22545      	220.30249      	220.24959      	220.26549      	220.2587       	220.27618      	220.2651       	220.24669      	220.29883      	220.3126       	220.26596      	220.28572      	220.30779      	220.30412      	220.31253      	220.30482      	220.31218      	220.29282      	220.3113       	220.31668      	220.31898      	220.30942      	220.3157       	220.30936      	220.30597      	220.3209       	220.32742      	220.31866      	220.30997      	220.33263      	220.34242      	220.33708      	220.36192      	220.3553       	220.36116      	220.367        	220.40854      	220.3377       	220.37556      	220.38475      	220.37665      	220.383        	220.372        	220.42686      	220.43797      	220.39891      	220.43628      	220.42184      	220.43602      	220.42516      	220.42017      	220.39072      	220.4061       	220.39526      	220.3969       	220.40933      	220.41913      	220.4485       	220.501        	220.47366      	220.48952      	220.4946       	220.52237      	220.48077      	220.49197      	220.49113      	220.50433      	220.50677      	220.50673      	220.52295      	220.53958      	220.5213       	220.5638       	220.583        	220.58522      	220.62779      	220.57791      	220.60641      	220.59483      	220.63043      	220.63759      	220.6153       	220.62915      	220.63356      	
221.26093      	221.27509      	221.29428      	221.27603      	221.26027      	221.29214      	221.29123      	221.3103       	221.27235      	221.2663       	221.25911      	221.27655      	221.24197      	221.25246      	221.28004      	221.23543      	221.242        	221.2718       	221.26593      	221.24924      	221.25099      	221.2568       	221.22711      	221.27342      	221.21558      	221.22415      	221.24725      	221.19891      	221.26416      	221.26088      	221.24397      	221.25105      	221.24986      	221.19493      	221.20322      	221.2423       	221.22589      	221.23586      	221.27596      	221.25691      	221.22801      	221.21571      	221.19257      	221.22623      	221.2342       	221.17561      	221.18587      	221.18408      	221.16763      	221.16986      	221.2012       	221.19264      	221.19989      	221.2003       	221.15077      	221.15839      	221.12958      	221.11653      	221.11627      	221.11012      	221.08426      	221.10278      	221.06696      	221.06241      	221.08243      	221.10338      	221.11835      	221.11653      	221.0734       	221.0875       	221.1022       	221.08815      	221.05112      	221.04872      	221.08563      	221.1155       	221.06456      	221.07721      	221.07126      	221.06023      	221.06387      	221.04291      	221.05809      	221.05412      	221.03714      	221.0682       	221.09856      	221.08553      	221.07611      	221.07074      	221.03383      	221.06728      	220.99864      	221.02357      	220.98827      	221.02206      	221.00603      	220.98225      	221.00385      	221.0036       	
220.79593      	220.80087      	220.78017      	220.78429      	220.78246      	220.78508      	220.7888       	220.78323      	220.77425      	220.78426      	220.78864      	220.78123      	220.76825      	220.77693      	220.77571      	220.77216      	220.75731      	220.78174      	220.77254      	220.78099      	220.751        	220.74162      	220.76437      	220.73853      	220.7598       	220.73402      	220.74648      	220.7213       	220.72162      	220.75677      	220.71654      	220.7254       	220.70776      	220.70596      	220.7128       	220.76923      	220.7422       	220.70354      	220.708        	220.72876      	220.72968      	220.69603      	220.70798      	220.69107      	220.63173      	220.70695      	220.64592      	220.66263      	220.63205      	220.65437      	220.71921      	220.65234      	220.64795      	220.67291      	220.6724       	220.68011      	220.68585      	220.67725      	220.68134      	220.68538      	220.6949       	220.69809      	220.66512      	220.69815      	220.68362      	220.6973       	220.64401      	220.68155      	220.70695      	220.68741      	220.69948      	220.63206      	220.6531       	220.65738      	220.65262      	220.66507      	220.6524       	220.66245      	220.68327      	220.61572      	220.63142      	220.62814      	220.63724      	220.63788      	220.61954      	220.6619       	220.62996      	220.62904      	220.63654      	220.64095      	220.64241      	220.65765      	220.61482      	220.63239      	220.64359      	220.58746      	220.67677      	220.63507      	220.64227      	220.66096      	
220.33057      	220.33495      	220.2989       	220.30478      	220.29869      	220.30649      	220.29774      	220.28299      	220.26091      	220.27951      	220.27798      	220.25516      	220.22025      	220.26505      	220.23749      	220.22687      	220.23927      	220.22098      	220.23479      	220.18562      	220.18895      	220.18613      	220.16135      	220.17404      	220.14459      	220.17934      	220.20753      	220.18175      	220.1897       	220.1901       	220.17361      	220.14876      	220.1517       	220.16245      	220.12762      	220.14825      	220.0987       	220.14127      	220.11826      	220.08038      	220.12346      	220.06606      	220.08987      	220.0908       	220.04019      	220.04744      	220.06325      	220.09584      	220.09792      	220.08026      	220.12021      	220.13258      	220.05026      	220.04678      	220.04861      	220.02402      	220.00485      	219.98477      	219.98505      	219.96591      	219.9602       	219.9834       	219.98024      	219.98611      	219.96756      	219.95103      	219.987        	219.95575      	219.97057      	219.9263       	219.91096      	219.91064      	219.90378      	219.87329      	219.87933      	219.91147      	219.88525      	219.88036      	219.88379      	219.89198      	219.90982      	219.87328      	219.93964      	219.93106      	219.9094       	219.87595      	219.9069       	219.82034      	219.82156      	219.88065      	219.83319      	219.83803      	219.86928      	219.85622      	219.82489      	219.78392      	219.79222      	219.81154      	219.7971       	219.78915      	
219.30656      	219.30939      	219.29442      	219.31793      	219.2995       	219.29842      	219.34172      	219.34888      	219.38145      	219.33043      	219.33388      	219.32985      	219.3064       	219.28673      	219.30429      	219.32184      	219.31325      	219.31607      	219.29906      	219.33095      	219.3014       	219.34221      	219.34967      	219.3486       	219.33632      	219.29427      	219.34798      	219.33542      	219.26906      	219.41113      	219.34155      	219.3667       	219.35207      	219.3389       	219.38344      	219.38702      	219.32861      	219.38895      	219.37987      	219.43034      	219.42694      	219.39743      	219.3992       	219.43547      	219.46336      	219.4371       	219.43619      	219.41846      	219.4317       	219.42824      	219.44461      	219.4352       	219.45233      	219.44139      	219.44655      	219.40453      	219.41544      	219.34634      	219.42023      	219.39003      	219.3702       	219.4048       	219.40338      	219.4816       	219.4406       	219.43741      	219.4          	219.43182      	219.4675       	219.38727      	219.42146      	219.45468      	219.37189      	219.44565      	219.40984      	219.41277      	219.43346      	219.41257      	219.43398      	219.40636      	219.4578       	219.46593      	219.46487      	219.47963      	219.49232      	219.48912      	219.50041      	219.4708       	219.49162      	219.49937      	219.51268      	219.47461      	219.52907      	219.466        	219.48657      	219.4999       	219.47116      	219.49838      	219.48764      	219.51491      	
219.60246      	219.62009      	219.5949       	219.59543      	219.61974      	219.628        	219.62825      	219.65355      	219.6444       	219.63567      	219.65306      	219.61206      	219.64243      	219.66283      	219.65744      	219.61989      	219.62563      	219.6365       	219.62857      	219.5905       	219.6288       	219.62598      	219.64621      	219.70564      	219.62758      	219.6594       	219.64474      	219.59438      	219.62924      	219.62723      	219.62282      	219.66055      	219.62503      	219.57932      	219.61005      	219.60938      	219.6347       	219.6393       	219.63707      	219.65062      	219.64886      	219.63615      	219.63156      	219.69818      	219.65073      	219.69176      	219.68805      	219.67328      	219.67923      	219.69818      	219.7118       	219.69264      	219.69597      	219.66905      	219.65262      	219.67642      	219.64917      	219.69827      	219.66783      	219.65677      	219.6736       	219.67474      	219.68251      	219.67613      	219.691        	219.66814      	219.68585      	219.68948      	219.70175      	219.72113      	219.63713      	219.6085       	219.63858      	219.63474      	219.65225      	219.6263       	219.61293      	219.60986      	219.62482      	219.62083      	219.60179      	219.60428      	219.6174       	219.60414      	219.641        	219.62929      	219.61456      	219.63972      	219.63533      	219.64825      	219.66165      	219.65657      	219.64691      	219.6422       	219.6526       	219.68109      	219.67165      	219.68011      	219.66873      	219.67708      	
219.90071      	219.90323      	219.92384      	219.91664      	219.91786      	219.90024      	219.91162      	219.88445      	219.91637      	219.95525      	219.93207      	219.94485      	219.92679      	219.924        	219.91888      	219.96092      	219.94028      	219.91603      	219.95857      	219.95241      	219.96558      	219.9754       	219.94933      	219.95091      	219.95494      	219.95372      	219.94978      	219.98315      	219.96819      	219.94849      	219.96893      	219.97023      	219.964        	219.99124      	219.96063      	219.94164      	219.97635      	219.94115      	219.95946      	219.97333      	219.96808      	220.00784      	219.99902      	219.94865      	219.9933       	219.96176      	219.99617      	219.97256      	219.99348      	219.9877       	219.979        	220.01297      	219.9874       	220.00066      	220.01036      	220.02539      	220.02289      	220.00708      	220.03453      	220.0919       	220.07594      	220.09818      	220.08548      	220.05194      	220.07886      	220.09074      	220.0831       	220.1136       	220.1227       	220.07365      	220.09454      	220.1158       	220.08588      	220.13257      	220.10565      	220.12958      	220.14462      	220.14182      	220.14578      	220.16629      	220.17184      	220.1517       	220.18947      	220.15723      	220.19225      	220.1915       	220.18509      	220.15514      	220.17874      	220.19965      	220.22183      	220.2133       	220.2053       	220.20706      	220.21011      	220.20287      	220.19664      	220.191        	220.20905      	220.18314      	
220.31784      	220.33224      	220.32335      	220.32977      	220.33958      	220.33046      	220.34183      	220.3579       	220.36191      	220.34717      	220.3614       	220.38622      	220.39845      	220.3536       	220.3388       	220.37093      	220.38397      	220.38419      	220.41843      	220.39659      	220.38548      	220.39         	220.41805      	220.45876      	220.5287       	220.55453      	220.55289      	220.52971      	220.48256      	220.47925      	220.47054      	220.45505      	220.48811      	220.49916      	220.47702      	220.4902       	220.47935      	220.47223      	220.5054       	220.49553      	220.50276      	220.4878       	220.49023      	220.53358      	220.51604      	220.53197      	220.509        	220.53513      	220.52072      	220.48456      	220.49252      	220.47919      	220.44125      	220.51288      	220.5031       	220.4501       	220.5174       	220.51195      	220.50963      	220.51088      	220.50621      	220.50226      	220.51913      	220.53035      	220.54051      	220.5408       	220.54483      	220.53474      	220.54086      	220.55054      	220.55608      	220.56784      	220.55292      	220.55666      	220.57706      	220.56554      	220.58163      	220.55585      	220.59987      	220.61246      	220.61278      	220.59311      	220.61531      	220.57669      	220.5884       	220.59424      	220.58766      	220.5852       	220.5537       	220.54129      	220.4831       	220.518        	220.53548      	220.52745      	220.50952      	220.49292      	220.53368      	220.50667      	220.51169      	220.55086      	
220.52493      	220.52635      	220.5619       	220.53369      	220.52214      	220.52911      	220.5285       	220.50824      	220.5197       	220.49338      	220.50755      	220.51416      	220.4997       	220.53987      	220.49826      	220.52109      	220.49149      	220.46976      	220.51936      	220.52213      	220.48671      	220.48636      	220.47899      	220.45331      	220.47078      	220.46573      	220.47585      	220.46634      	220.46706      	220.47585      	220.4831       	220.48283      	220.43694      	220.48364      	220.48444      	220.46468      	220.48709      	220.46796      	220.47684      	220.49034      	220.47968      	220.47304      	220.45401      	220.46637      	220.48306      	220.44261      	220.45726      	220.45216      	220.5048       	220.47142      	220.48138      	220.46672      	220.45418      	220.45331      	220.46434      	220.47186      	220.4698       	220.47879      	220.49594      	220.46878      	220.46996      	220.49542      	220.47415      	220.49208      	220.48819      	220.49014      	220.49596      	220.48117      	220.4789       	220.48209      	220.47209      	220.47493      	220.47542      	220.47269      	220.46739      	220.46721      	220.4929       	220.46255      	220.50519      	220.49452      	220.4737       	220.4966       	220.52563      	220.49461      	220.48827      	220.50995      	220.49805      	220.49892      	220.50644      	220.48625      	220.50708      	220.53099      	220.53554      	220.56322      	220.56364      	220.52344      	220.51361      	220.53163      	220.4822       	220.50766      	
220.59476      	220.55975      	220.55713      	220.5801       	220.56902      	220.54369      	220.54611      	220.57826      	220.58626      	220.54681      	220.56773      	220.56117      	220.56241      	220.57845      	220.55838      	220.53557      	220.52335      	220.53177      	220.53026      	220.55193      	220.56985      	220.5462       	220.57285      	220.58675      	220.57883      	220.58804      	220.56508      	220.54819      	220.56522      	220.5816       	220.55568      	220.5903       	220.55852      	220.54552      	220.55356      	220.5695       	220.54828      	220.54922      	220.55087      	220.5452       	220.5589       	220.56584      	220.54485      	220.57814      	220.58504      	220.58812      	220.56424      	220.60178      	220.62003      	220.61514      	220.50319      	220.53397      	220.59735      	220.64896      	220.61336      	220.61891      	220.59251      	220.56436      	220.56615      	220.56529      	220.58182      	220.58192      	220.58214      	220.5635       	220.55988      	220.56895      	220.56697      	220.56383      	220.58282      	220.54868      	220.56618      	220.59532      	220.58426      	220.60287      	220.59015      	220.57677      	220.61977      	220.59302      	220.57649      	220.57596      	220.57494      	220.5542       	220.57039      	220.60477      	220.5572       	220.54245      	220.56544      	220.56429      	220.58235      	220.54884      	220.53108      	220.54729      	220.55026      	220.53334      	220.53401      	220.5038       	220.53925      	220.52888      	220.51033      	220.54147      	
220.28215      	220.25314      	220.27377      	220.2748       	220.25546      	220.29547      	220.29141      	220.27882      	220.25087      	220.29442      	220.29967      	220.32094      	220.30057      	220.27452      	220.27635      	220.28061      	220.26457      	220.28836      	220.26706      	220.25511      	220.28323      	220.28685      	220.25966      	220.26517      	220.26414      	220.2644       	220.23538      	220.25398      	220.26016      	220.23521      	220.19603      	220.20638      	220.23584      	220.20502      	220.22914      	220.2084       	220.23245      	220.22786      	220.23508      	220.19046      	220.1987       	220.19101      	220.24504      	220.23755      	220.21265      	220.22702      	220.17174      	220.16864      	220.2033       	220.18385      	220.16373      	220.17445      	220.16132      	220.15016      	220.1756       	220.15273      	220.1373       	220.12735      	220.17453      	220.20181      	220.19261      	220.207        	220.13556      	220.14711      	220.14664      	220.15038      	220.11526      	220.09749      	220.1359       	220.15047      	220.15022      	220.15839      	220.14363      	220.1454       	220.13675      	220.11185      	220.10841      	220.10744      	220.10344      	220.07474      	220.10849      	220.10948      	220.08432      	220.07877      	220.08823      	220.09236      	220.09076      	220.05203      	220.06616      	220.04384      	220.08311      	220.04556      	220.06119      	220.05193      	220.06703      	220.06284      	220.05824      	220.05148      	220.053        	220.06122      	
220.28278      	220.29266      	220.28038      	220.2945       	220.29906      	220.30682      	220.31602      	220.3599       	220.38681      	220.39447      	220.4213       	220.41512      	220.40578      	220.37823      	220.38016      	220.37425      	220.35847      	220.41747      	220.4099       	220.3862       	220.39252      	220.42271      	220.39363      	220.42         	220.44118      	220.41159      	220.43568      	220.42136      	220.45808      	220.46384      	220.43837      	220.42944      	220.451        	220.4516       	220.48044      	220.48265      	220.48933      	220.51172      	220.5266       	220.5258       	220.53693      	220.50366      	220.50359      	220.51408      	220.48277      	220.50414      	220.53069      	220.53786      	220.51852      	220.53172      	220.58698      	220.61563      	220.56697      	220.57022      	220.60907      	220.58002      	220.5917       	220.62637      	220.62746      	220.58212      	220.61694      	220.62152      	220.66129      	220.65022      	220.61615      	220.61595      	220.64029      	220.66194      	220.61578      	220.65062      	220.65863      	220.65213      	220.69098      	220.66391      	220.64523      	220.67714      	220.67497      	220.67613      	220.68492      	220.6957       	220.68942      	220.69676      	220.66756      	220.70204      	220.73804      	220.70361      	220.71931      	220.71996      	220.7255       	220.74292      	220.71492      	220.75432      	220.74617      	220.747        	220.78833      	220.76337      	220.75912      	220.78459      	220.79349      	220.78513      	
221.55461      	221.55501      	221.54842      	221.57541      	221.5699       	221.56754      	221.57901      	221.57828      	221.59845      	221.58992      	221.58838      	221.61583      	221.60707      	221.61266      	221.64684      	221.60515      	221.6058       	221.6304       	221.60727      	221.60562      	221.65974      	221.6535       	221.67319      	221.67812      	221.67853      	221.68115      	221.70247      	221.70566      	221.72357      	221.71353      	221.70538      	221.694        	221.70575      	221.75275      	221.73032      	221.73907      	221.74518      	221.72226      	221.74635      	221.73943      	221.73148      	221.74884      	221.75009      	221.7893       	221.77768      	221.74503      	221.79654      	221.76556      	221.7989       	221.88248      	221.82617      	221.7989       	221.80084      	221.83113      	221.80641      	221.82008      	221.8183       	221.82753      	221.83995      	221.82278      	221.83832      	221.84108      	221.76239      	221.73538      	221.8613       	221.86774      	221.87502      	221.87704      	221.84328      	221.85124      	221.87761      	221.86823      	221.86371      	221.85971      	221.8598       	221.88528      	221.8743       	221.86156      	221.86795      	221.89572      	221.89188      	221.90623      	221.89659      	221.88747      	221.89117      	221.8689       	221.87938      	221.85199      	221.9155       	221.88503      	221.88419      	221.88754      	221.89232      	221.89365      	221.90991      	221.9134       	221.90038      	221.88168      	221.90045      	221.87175      	
221.76376      	221.80916      	221.79799      	221.79263      	221.79056      	221.7877       	221.79013      	221.80972      	221.81104      	221.80818      	221.78146      	221.7915       	221.77798      	221.78354      	221.80304      	221.75272      	221.77435      	221.79282      	221.7851       	221.7453       	221.76602      	221.75502      	221.76392      	221.7446       	221.72589      	221.75319      	221.72964      	221.6971       	221.73854      	221.75294      	221.73526      	221.7446       	221.73347      	221.72311      	221.73978      	221.72878      	221.71532      	221.71982      	221.76402      	221.74529      	221.7605       	221.74295      	221.71468      	221.78598      	221.74602      	221.72495      	221.74481      	221.72533      	221.74123      	221.76254      	221.76633      	221.75879      	221.74812      	221.74666      	221.73633      	221.74358      	221.74037      	221.7407       	221.74194      	221.74413      	221.73611      	221.772        	221.71864      	221.744        	221.73647      	221.72919      	221.71909      	221.74765      	221.75275      	221.75323      	221.78882      	221.75188      	221.73875      	221.71962      	221.77257      	221.76643      	221.78262      	221.73714      	221.7059       	221.73148      	221.7146       	221.73274      	221.73196      	221.714        	221.6975       	221.71701      	221.73654      	221.70775      	221.6806       	221.67415      	221.70111      	221.65634      	221.70958      	221.70973      	221.68431      	221.73163      	221.694        	221.65712      	221.71095      	221.6928       	
221.53966      	221.56696      	221.59435      	221.54538      	221.53781      	221.56142      	221.55759      	221.54199      	221.58684      	221.58179      	221.54715      	221.52937      	221.52487      	221.5245       	221.48651      	221.51822      	221.45644      	221.47615      	221.48128      	221.48404      	221.50412      	221.4986       	221.45364      	221.49576      	221.47403      	221.50505      	221.50198      	221.49316      	221.4777       	221.5057       	221.48526      	221.47867      	221.4947       	221.47975      	221.50252      	221.51833      	221.49217      	221.50241      	221.48277      	221.46942      	221.51671      	221.50262      	221.46951      	221.44464      	221.43652      	221.48215      	221.4698       	221.47688      	221.42609      	221.44533      	221.39288      	221.362        	221.34683      	221.4044       	221.40358      	221.40671      	221.36833      	221.38435      	221.36656      	221.33382      	221.39355      	221.3901       	221.42076      	221.41422      	221.40681      	221.39168      	221.34146      	221.41104      	221.3358       	221.33707      	221.33081      	221.31061      	221.30443      	221.22882      	221.2497       	221.25937      	221.32188      	221.32791      	221.2256       	221.24783      	221.25882      	221.27571      	221.29655      	221.2067       	221.24081      	221.28305      	221.26857      	221.22604      	221.2496       	221.18327      	221.19394      	221.01114      	220.99722      	221.01825      	221.04549      	221.07504      	221.02232      	221.02618      	221.02702      	221.04556      	
220.93912      	220.92184      	220.92781      	220.91951      	220.89081      	220.87889      	220.91263      	220.93129      	220.88771      	220.8592       	220.89842      	220.8909       	220.89732      	220.90761      	220.84901      	220.85861      	220.89731      	220.87326      	220.89275      	220.8954       	220.88014      	220.87532      	220.87135      	220.88036      	220.871        	220.87228      	220.83862      	220.84027      	220.8679       	220.83604      	220.90617      	220.8827       	220.87323      	220.88474      	220.78192      	220.78223      	220.81253      	220.87589      	220.89532      	220.86827      	220.73643      	220.626        	220.63458      	220.58493      	220.62369      	220.62721      	220.65367      	220.68813      	220.62723      	220.5573       	220.63591      	220.59824      	220.59033      	220.59593      	220.62624      	220.59651      	220.6016       	220.60188      	220.62411      	220.66559      	220.65709      	220.76231      	220.77814      	220.79039      	220.74876      	220.73012      	220.74794      	220.70909      	220.68788      	220.73773      	220.7226       	220.69699      	220.72073      	220.69304      	220.74187      	220.70071      	220.72824      	220.72377      	220.66895      	220.70012      	220.71336      	220.73428      	220.7229       	220.68529      	220.70782      	220.72989      	220.7176       	220.68224      	220.69151      	220.72263      	220.62729      	220.60416      	220.65782      	220.66327      	220.67703      	220.6325       	220.63995      	220.63211      	220.64676      	220.67319      	
220.21461      	220.23805      	220.21239      	220.21588      	220.17506      	220.14828      	220.12186      	220.15013      	220.19244      	220.15578      	220.14896      	220.09784      	220.03922      	220.01921      	219.99643      	219.98404      	219.98967      	219.93509      	219.93907      	219.92316      	219.94197      	219.93324      	219.97887      	219.97183      	219.91202      	219.95651      	219.9528       	219.93578      	219.94537      	219.90877      	219.94943      	219.96507      	219.98608      	220.01         	220.10956      	220.03445      	219.97528      	219.95567      	220.03098      	220.03293      	220.04947      	220.06943      	220.03738      	220.07501      	220.03848      	220.05731      	220.04759      	220.05095      	220.02805      	220.04355      	220.03142      	220.02171      	220.01472      	220.03554      	220.01976      	219.99791      	220.01022      	219.99515      	219.99919      	219.91628      	219.8185       	219.91495      	219.99403      	219.97011      	219.9947       	220.00284      	220.00409      	220.01273      	220.01515      	219.9964       	219.97562      	220.00006      	219.97374      	219.96535      	220.02257      	220.00595      	220.00235      	219.98842      	220.0275       	219.99692      	220.00844      	220.00577      	220.01897      	220.01093      	220.00145      	219.99097      	220.03253      	219.99828      	220.01895      	220.02263      	219.94191      	219.96492      	219.97342      	219.98866      	219.98691      	219.97223      	219.94458      	219.97284      	219.96419      	219.94545      	
220.24211      	220.16025      	220.14146      	220.15993      	220.22618      	220.22684      	220.1839       	220.23721      	220.25912      	220.2379       	220.24925      	220.26468      	220.25209      	220.22203      	220.18288      	220.22136      	220.2263       	220.22223      	220.19792      	220.24806      	220.24425      	220.22536      	220.24202      	220.23001      	220.22086      	220.29213      	220.2861       	220.3218       	220.24585      	220.26024      	220.22908      	220.27284      	220.19513      	220.22324      	220.25665      	220.22949      	220.27426      	220.28802      	220.31209      	220.26175      	220.2194       	220.23541      	220.23346      	220.25941      	220.23868      	220.23593      	220.23988      	220.24403      	220.22757      	220.23973      	220.22833      	220.25311      	220.24124      	220.25659      	220.24913      	220.26588      	220.26735      	220.28297      	220.24234      	220.22797      	220.09511      	220.09016      	220.19656      	220.17368      	220.27615      	220.28549      	220.26674      	220.2653       	220.29655      	220.29999      	220.28387      	220.2854       	220.26035      	220.30087      	220.28156      	220.27219      	220.26207      	220.28192      	220.2765       	220.26231      	220.25562      	220.25307      	220.24889      	220.24562      	220.25375      	220.23703      	220.26573      	220.27313      	220.31802      	220.3006       	220.2449       	220.28146      	220.22932      	220.2442       	220.27101      	220.21819      	220.2464       	220.21584      	220.21664      	220.21935      	
220.11374      	220.1019       	220.11757      	220.12506      	220.08559      	220.03522      	219.98326      	220.03018      	220.0309       	220.04915      	220.07306      	220.08853      	220.15651      	220.06212      	220.1238       	220.08214      	220.09415      	220.06113      	220.06068      	220.10295      	220.05002      	220.03473      	220.08987      	220.08893      	220.04848      	220.05475      	220.03352      	220.03825      	220.04538      	220.02507      	220.02225      	220.01077      	220.0633       	220.03128      	220.00887      	220.07042      	219.97475      	219.96255      	219.91489      	219.93707      	219.8676       	219.85759      	219.86133      	219.91983      	219.92308      	219.92279      	219.84401      	219.88486      	219.90282      	219.9061       	219.85477      	219.85832      	219.8692       	219.89076      	219.90762      	219.96764      	219.98923      	220.01295      	220.01825      	219.97379      	219.89609      	219.96861      	219.88397      	219.81412      	219.89198      	219.9369       	219.90707      	219.9349       	219.99219      	220.10385      	220.05402      	220.0555       	220.06033      	220.0662       	220.02333      	220.04655      	220.09535      	220.00424      	220.00609      	220.02605      	220.00635      	220.01175      	220.01617      	220.01024      	220.00285      	219.98761      	220.00963      	220.00258      	220.01263      	219.98727      	219.93744      	219.89554      	219.95631      	219.94727      	219.96883      	219.8701       	219.82516      	219.85059      	219.84732      	219.82983      	
220.02019      	219.99881      	219.97386      	219.95584      	219.97195      	219.98624      	219.95169      	219.95033      	219.95482      	219.95099      	219.9428       	219.93546      	219.93712      	219.91283      	219.91039      	219.91992      	219.92065      	219.94563      	219.93658      	219.88504      	219.92014      	219.93747      	219.92047      	219.92677      	219.8489       	219.85886      	219.8613       	219.895        	219.91005      	219.84995      	219.84401      	219.83615      	219.84938      	219.83437      	219.81314      	219.78117      	219.76295      	219.75871      	219.75732      	219.82419      	219.84328      	219.8558       	219.87204      	219.74826      	219.80397      	219.86662      	219.84854      	219.80591      	219.88295      	219.88596      	219.88522      	219.88382      	219.83893      	219.82123      	219.7986       	219.7846       	219.80501      	219.81609      	219.82358      	219.86693      	219.81432      	219.83276      	219.8724       	219.84773      	219.83499      	219.8056       	219.76633      	219.74997      	219.85353      	219.86668      	219.83942      	219.82756      	219.82591      	219.82436      	219.96854      	220.02109      	220.00739      	220.01482      	219.98367      	219.95972      	219.99094      	219.98795      	219.98312      	219.98578      	219.98761      	219.97818      	219.94325      	219.98093      	219.97484      	219.98006      	219.94011      	219.85973      	219.9017       	219.90047      	219.92677      	219.93422      	219.8978       	219.89404      	219.81822      	219.79622      	
