# www.neaspec.com
# Scan:	 	Whitelight Imaging
# Project:	 	20251007_PS
# Description:	 	
# Date:	 	10/07/2025 16:01:01
# Scanner Center Position (X, Y):	[µm]	49.66	48.17	 
# Rotation:	[°]	0	 	 
# Scan Area (X, Y, Z):	[µm]	5.000	5.000	0.000
# Pixel Area (X, Y, Z):	[px]	100	100	1
# Interferometer Center/Distance:	[µm]	546.322	0.000	 
# Averaging:	 	1	 	 
# Integration time:	[ms]	5	 	 
# Wavenumber Scaling:	 	1.000000	 	 
# Laser Source:	 	4.5-15 µm nano-FTIR laser
# Detector:	 	R
# Target Wavelength:	[µm]	7.502	 	 
# Demodulation Mode:	 	Fourier
# Tip Frequency:	[Hz]	238,800.109	 	 
# Tip Amplitude:	[mV]	13.000	 	 
# Tapping Amplitude:	[nm]	74.298	 	 
# Modulation Frequency:	[Hz]	0.000	 	 
# Modulation Amplitude:	[mV]	0.000	 	 
# Modulation Offset:	[mV]	0.000	 	 
# Setpoint:	[%]	79.75	 	 
# Regulator (P, I, D):	 	4.206850	8.625812	1.000000
# Tip Potential:	[mV]	0.000	 	 
# M1A Scaling:	[nm/V]	0.426	 	 
# M1A Cantilever Factor:	 	1,000	 	 
# Q-Factor:	 	452.3	 	 
# Version:	 	2.1.11536.0
218.9302       	218.90123      	218.90259      	218.92409      	218.94057      	218.91501      	218.90384      	218.92154      	218.92982      	218.9209       	218.91925      	218.93558      	218.90553      	218.91937      	218.94359      	218.9075       	218.93182      	218.93683      	218.93149      	218.89478      	218.965        	218.90799      	218.9193       	218.95554      	218.8688       	218.69125      	218.84627      	218.8873       	218.89268      	218.85889      	218.87834      	218.87936      	218.90057      	218.88414      	218.87071      	218.85718      	218.87885      	218.86664      	218.85764      	218.86429      	218.89592      	218.88965      	218.88354      	218.89122      	218.87672      	218.95525      	218.89827      	218.90521      	218.90404      	218.87125      	218.88232      	218.90617      	218.87784      	218.90106      	218.97824      	218.91212      	218.95917      	219.00922      	218.92491      	218.95291      	218.92955      	218.92003      	218.94493      	218.93686      	218.90761      	218.93942      	218.95949      	218.93605      	218.96657      	218.92828      	218.95508      	218.96738      	218.94426      	218.94484      	218.93204      	218.97649      	218.94562      	218.93994      	218.94806      	218.91278      	218.94156      	218.9433       	218.93207      	218.93158      	218.92218      	218.94586      	218.87183      	218.75412      	218.85971      	218.94545      	218.9164       	218.9231       	218.96149      	218.9352       	218.96591      	218.93964      	218.9643       	218.96767      	218.94238      	218.97575      	
218.83293      	218.77365      	218.77744      	218.7851       	218.76018      	218.7854       	218.76886      	218.77327      	218.77484      	218.78091      	218.77257      	218.78197      	218.8217       	218.81926      	218.78879      	218.80858      	218.7864       	218.8466       	218.84476      	218.82683      	218.82065      	218.84995      	218.83266      	218.84392      	218.81447      	218.63753      	218.73975      	218.81429      	218.77953      	218.82498      	218.82487      	218.79933      	218.81697      	218.78587      	218.82799      	218.84662      	218.79343      	218.84152      	218.83514      	218.83282      	218.82918      	218.82425      	218.81879      	218.82448      	218.81711      	218.83179      	218.81966      	218.83206      	218.81892      	218.82785      	218.85222      	218.87042      	218.88387      	218.87338      	218.81874      	218.84286      	218.80443      	218.92488      	218.81958      	218.81029      	218.864        	218.87396      	218.85927      	218.84616      	218.8666       	218.87108      	218.87502      	218.87643      	218.85638      	218.86345      	218.83847      	218.85599      	218.84915      	218.82074      	218.84212      	218.82446      	218.86664      	218.87479      	218.87068      	218.80536      	218.82106      	218.82912      	218.8951       	218.86798      	218.83127      	218.8644       	218.67523      	218.6199       	218.71861      	218.77449      	218.84724      	218.94644      	218.8799       	218.82559      	218.82584      	218.81439      	218.83224      	218.83884      	218.83485      	218.8527       	
218.52962      	218.50002      	218.4651       	218.50377      	218.4935       	218.47069      	218.45653      	218.47331      	218.50389      	218.50511      	218.49724      	218.47015      	218.47179      	218.46632      	218.4835       	218.47069      	218.48364      	218.50002      	218.50314      	218.48172      	218.49072      	218.52103      	218.50551      	218.50546      	218.42836      	218.27704      	218.44669      	218.48172      	218.51057      	218.54468      	218.55109      	218.51709      	218.49356      	218.47047      	218.48898      	218.4816       	218.50076      	218.49269      	218.45735      	218.47453      	218.48888      	218.49977      	218.48267      	218.5232       	218.49568      	218.48793      	218.50182      	218.50589      	218.45819      	218.47629      	218.53143      	218.48796      	218.50195      	218.50122      	218.46571      	218.50732      	218.56406      	218.55414      	218.52078      	218.50015      	218.52591      	218.53116      	218.5357       	218.53258      	218.51822      	218.5115       	218.52354      	218.54335      	218.52962      	218.51341      	218.49924      	218.50778      	218.50833      	218.53409      	218.47838      	218.49571      	218.52109      	218.53494      	218.45929      	218.49796      	218.52829      	218.38612      	218.49709      	218.47409      	218.42804      	218.35574      	218.3585       	218.34344      	218.3642       	218.42642      	218.46248      	218.55583      	218.59277      	218.64491      	218.63136      	218.5804       	218.53441      	218.54355      	218.53523      	218.53525      	
217.96654      	217.94456      	217.96188      	217.98886      	217.9797       	217.99518      	217.99275      	217.98053      	218.00772      	218.00682      	217.99376      	218.03464      	218.02878      	218.00998      	218.05037      	218.02264      	218.02345      	218.0389       	218.04126      	218.08496      	218.05792      	218.04681      	218.06866      	218.088        	217.89436      	217.75917      	217.96222      	217.98404      	217.99986      	218.03648      	218.01251      	217.9863       	218.01642      	217.99382      	218.01517      	218.01521      	218.0045       	218.03294      	218.0166       	218.00966      	218.031        	218.03574      	218.05583      	218.04608      	218.007        	218.05545      	218.07896      	218.0618       	218.06291      	218.06656      	218.06972      	218.07875      	218.08081      	218.08237      	218.06944      	218.06201      	218.09967      	218.09357      	218.16063      	218.16855      	218.1639       	218.15758      	218.16808      	218.12233      	218.13145      	218.09784      	218.14737      	218.14598      	218.11461      	218.13298      	218.11961      	218.12991      	218.14719      	218.14015      	218.17285      	218.14574      	218.17825      	218.18698      	218.15454      	218.15598      	218.17906      	218.18886      	218.1498       	218.0386       	217.93906      	217.98105      	217.9892       	217.99611      	218.01962      	218.05576      	218.09283      	218.12581      	218.16554      	218.20306      	218.31322      	218.27579      	218.16588      	218.15355      	218.14703      	218.15482      	
217.75809      	217.73997      	217.73973      	217.74823      	217.73863      	217.76001      	217.76433      	217.74936      	217.7348       	217.74948      	217.73424      	217.78676      	217.75278      	217.74916      	217.75917      	217.77377      	217.7514       	217.76613      	217.75113      	217.79941      	217.77113      	217.74739      	217.7682       	217.78719      	217.67274      	217.58258      	217.70638      	217.77849      	217.7649       	217.79514      	217.79276      	217.77965      	217.78801      	217.76398      	217.76227      	217.76654      	217.75214      	217.7962       	217.75035      	217.76878      	217.75653      	217.72443      	217.75633      	217.75543      	217.75668      	217.73308      	217.7618       	217.75056      	217.76025      	217.74503      	217.7469       	217.7602       	217.7468       	217.71877      	217.76584      	217.71094      	217.65974      	217.61058      	217.7734       	217.76213      	217.77246      	217.75099      	217.77391      	217.7684       	217.75931      	217.79436      	217.78491      	217.75775      	217.75601      	217.76413      	217.76617      	217.76747      	217.77374      	217.80022      	217.76695      	217.73413      	217.7927       	217.77821      	217.74773      	217.77057      	217.80219      	217.74397      	217.66742      	217.58939      	217.4987       	217.61832      	217.64062      	217.63608      	217.64442      	217.63745      	217.6783       	217.70811      	217.76707      	217.83171      	217.9209       	217.83461      	217.74576      	217.57408      	217.55621      	217.6161       	
217.5936       	217.6011       	217.61824      	217.6106       	217.62581      	217.62831      	217.62929      	217.64093      	217.6307       	217.6455       	217.65544      	217.61003      	217.66861      	217.6704       	217.64445      	217.63045      	217.61523      	217.67453      	217.64389      	217.64578      	217.64966      	217.63647      	217.63263      	217.68141      	217.67838      	217.48128      	217.52798      	217.6608       	217.6561       	217.64883      	217.62836      	217.62213      	217.5906       	217.594        	217.64024      	217.58629      	217.58723      	217.62709      	217.62695      	217.59903      	217.62817      	217.59207      	217.62535      	217.64037      	217.58203      	217.58595      	217.5782       	217.59555      	217.56847      	217.60619      	217.52235      	217.53339      	217.52058      	217.54112      	217.54118      	217.47427      	217.42784      	217.48538      	217.58487      	217.60178      	217.63405      	217.60965      	217.62209      	217.62791      	217.60751      	217.62494      	217.63805      	217.63908      	217.60861      	217.61507      	217.61717      	217.63797      	217.61925      	217.6159       	217.60959      	217.61392      	217.61798      	217.6242       	217.61488      	217.60255      	217.60013      	217.47589      	217.41808      	217.36838      	217.39934      	217.43826      	217.43367      	217.47646      	217.45241      	217.48315      	217.48006      	217.53523      	217.59549      	217.69931      	217.63051      	217.66577      	217.69435      	217.69637      	217.60367      	217.61679      	
217.58372      	217.55089      	217.556        	217.54324      	217.54279      	217.56833      	217.55338      	217.54865      	217.50125      	217.51149      	217.5456       	217.51018      	217.53497      	217.49823      	217.48698      	217.4828       	217.51213      	217.52602      	217.48447      	217.52008      	217.49843      	217.5243       	217.53181      	217.49818      	217.49104      	217.29695      	217.20596      	217.22252      	217.2903       	217.30304      	217.26547      	217.27928      	217.26212      	217.20766      	217.25969      	217.28159      	217.22609      	217.23135      	217.22308      	217.22478      	217.25568      	217.33676      	217.28842      	217.22153      	217.41528      	217.3654       	217.49161      	217.31406      	217.41554      	217.36743      	217.42943      	217.54953      	217.54297      	217.53114      	217.47284      	217.51688      	217.48883      	217.491        	217.50125      	217.4986       	217.5029       	217.49147      	217.46255      	217.475        	217.48595      	217.52394      	217.49352      	217.5003       	217.5003       	217.49539      	217.50285      	217.49251      	217.5071       	217.49411      	217.50945      	217.5113       	217.50154      	217.49161      	217.51929      	217.50804      	217.3961       	217.32953      	217.24521      	217.26537      	217.26904      	217.32042      	217.36566      	217.41788      	217.4286       	217.32416      	217.36475      	217.41791      	217.49178      	217.62729      	217.51056      	217.52003      	217.5246       	217.5641       	217.52809      	217.49431      	
218.00165      	217.99162      	217.9723       	217.98584      	217.97113      	217.93199      	217.97119      	217.9715       	217.95145      	217.9366       	217.93658      	217.9607       	217.9022       	217.94713      	217.91222      	217.91455      	217.92456      	217.9083       	217.90788      	217.90097      	217.88968      	217.87689      	217.92372      	217.93994      	217.90102      	217.91458      	217.93645      	217.9265       	217.90878      	217.94041      	217.91579      	217.93628      	217.89485      	217.88803      	217.89049      	217.87881      	217.89603      	217.86542      	217.85002      	217.84299      	217.8578       	217.81215      	217.80827      	217.87794      	217.87036      	217.84352      	217.85155      	217.85638      	217.85889      	217.87231      	217.90497      	217.88963      	217.8982       	217.90616      	217.86469      	217.86353      	217.88846      	217.83395      	217.80238      	217.8006       	217.78531      	217.77684      	217.74594      	217.70645      	217.75478      	217.73997      	217.75409      	217.74364      	217.726        	217.77225      	217.73413      	217.73785      	217.7418       	217.72281      	217.75499      	217.72852      	217.72911      	217.7346       	217.69785      	217.63126      	217.58382      	217.39282      	217.3916       	217.39594      	217.44241      	217.48615      	217.42528      	217.61835      	217.58612      	217.49219      	217.5012       	217.58578      	217.65956      	217.80743      	217.6717       	217.59628      	217.70288      	217.68231      	217.72008      	217.66837      	
218.7838       	218.76984      	218.8039       	218.82623      	218.80951      	218.79062      	218.73065      	218.7583       	218.76971      	218.76309      	218.77466      	218.77504      	218.77246      	218.77524      	218.76382      	218.72977      	218.76212      	218.77017      	218.78024      	218.78136      	218.76161      	218.76611      	218.72899      	218.76483      	218.77074      	218.78806      	218.70323      	218.70847      	218.7158       	218.68245      	218.7089       	218.68195      	218.70717      	218.70033      	218.67262      	218.66605      	218.67229      	218.64903      	218.67635      	218.65805      	218.63158      	218.6345       	218.63507      	218.6099       	218.65048      	218.62216      	218.6308       	218.6469       	218.63527      	218.5954       	218.6214       	218.6279       	218.60945      	218.5712       	218.62784      	218.6168       	218.63686      	218.6433       	218.61069      	218.64821      	218.62985      	218.64914      	218.64523      	218.59418      	218.62917      	218.60585      	218.60516      	218.56436      	218.56622      	218.57513      	218.54771      	218.59181      	218.5263       	218.54941      	218.52895      	218.55443      	218.57196      	218.58301      	218.51402      	218.39752      	218.32204      	218.16168      	218.1467       	218.20848      	218.21909      	218.23758      	218.28568      	218.50552      	218.42595      	218.37404      	218.29234      	218.40877      	218.55167      	218.63393      	218.49069      	218.49138      	218.46877      	218.47867      	218.45158      	218.4464       	
219.42381      	219.44228      	219.44987      	219.4267       	219.44948      	219.4308       	219.42264      	219.44199      	219.40123      	219.45802      	219.43448      	219.44594      	219.42264      	219.43817      	219.42987      	219.44427      	219.43222      	219.43617      	219.42006      	219.4086       	219.3948       	219.37502      	219.38321      	219.35655      	219.3977       	219.38263      	219.3714       	219.37117      	219.37752      	219.38243      	219.39725      	219.35994      	219.35938      	219.34145      	219.33937      	219.33131      	219.32516      	219.33449      	219.3794       	219.36412      	219.39381      	219.33359      	219.35231      	219.35565      	219.31345      	219.33786      	219.31407      	219.28278      	219.31909      	219.32745      	219.31291      	219.30724      	219.32928      	219.28891      	219.2792       	219.31407      	219.27939      	219.31258      	219.28879      	219.2984       	219.34026      	219.2944       	219.27643      	219.26312      	219.2818       	219.24666      	219.2687       	219.26617      	219.25613      	219.28004      	219.24904      	219.23651      	219.26003      	219.25006      	219.22455      	219.25058      	219.26367      	219.25072      	219.27496      	219.15785      	219.01085      	218.86873      	218.84537      	218.88458      	218.99408      	218.93216      	219.0027       	219.17148      	219.13152      	219.05948      	219.07195      	219.12558      	219.20963      	219.28407      	219.21272      	219.20645      	219.20135      	219.20726      	219.17776      	219.20738      	
219.72946      	219.78961      	219.75108      	219.76009      	219.72464      	219.75432      	219.71774      	219.73947      	219.7517       	219.71962      	219.73438      	219.73323      	219.69974      	219.74683      	219.72102      	219.74414      	219.70006      	219.6849       	219.70508      	219.70949      	219.704        	219.70085      	219.72269      	219.70749      	219.708        	219.72647      	219.71935      	219.72859      	219.7236       	219.71695      	219.71019      	219.69879      	219.72018      	219.71071      	219.70508      	219.69081      	219.73112      	219.73094      	219.74037      	219.72667      	219.72865      	219.7258       	219.73106      	219.74318      	219.71143      	219.74448      	219.7554       	219.74957      	219.74367      	219.7243       	219.71657      	219.7093       	219.71037      	219.7077       	219.7325       	219.71146      	219.71136      	219.70116      	219.69781      	219.69353      	219.7073       	219.6952       	219.71854      	219.74226      	219.71608      	219.73587      	219.72362      	219.6885       	219.71945      	219.71747      	219.69563      	219.69833      	219.69223      	219.68234      	219.692        	219.67828      	219.66322      	219.70255      	219.68188      	219.6235       	219.57785      	219.417        	219.29063      	219.36429      	219.49875      	219.5144       	219.5693       	219.61058      	219.61647      	219.58719      	219.5557       	219.61656      	219.65285      	219.69391      	219.68007      	219.65356      	219.69171      	219.67923      	219.65211      	219.65143      	
219.37164      	219.35382      	219.33693      	219.33054      	219.30814      	219.30145      	219.3193       	219.31638      	219.34041      	219.31883      	219.30907      	219.33102      	219.33961      	219.34727      	219.38287      	219.38281      	219.39453      	219.39432      	219.38762      	219.35556      	219.39328      	219.38132      	219.32478      	219.33855      	219.34846      	219.3767       	219.39293      	219.36752      	219.3644       	219.3907       	219.38715      	219.3864       	219.37448      	219.36635      	219.42154      	219.38696      	219.39586      	219.39845      	219.41258      	219.40823      	219.39763      	219.40958      	219.37614      	219.43948      	219.41348      	219.38469      	219.41454      	219.41388      	219.43314      	219.41193      	219.38069      	219.43454      	219.41626      	219.45901      	219.43922      	219.40216      	219.41547      	219.43073      	219.4413       	219.4193       	219.40918      	219.38268      	219.44952      	219.44875      	219.44353      	219.35739      	219.43742      	219.46672      	219.46133      	219.44467      	219.40675      	219.42699      	219.4859       	219.49733      	219.46877      	219.43307      	219.37567      	219.52728      	219.4612       	219.41472      	219.36757      	219.37346      	219.31369      	219.2173       	219.26259      	219.32812      	219.3906       	219.36661      	219.40465      	219.3651       	219.4012       	219.44914      	219.49538      	219.60272      	219.604        	219.579        	219.56923      	219.53915      	219.5058       	219.5271       	
218.7797       	218.7789       	218.7822       	218.7864       	218.80484      	218.78812      	218.79454      	218.82205      	218.8181       	218.83344      	218.81372      	218.81805      	218.81496      	218.81535      	218.8369       	218.80476      	218.85143      	218.82965      	218.83926      	218.87364      	218.85965      	218.89369      	218.87563      	218.89029      	218.92743      	218.92268      	218.92316      	218.91014      	218.92072      	218.9401       	218.88942      	218.95328      	218.89722      	218.92073      	218.9301       	218.87057      	218.888        	218.89252      	218.87448      	218.87996      	218.89467      	218.89713      	218.88802      	218.89139      	218.90427      	218.90797      	218.8969       	218.91898      	218.88812      	218.89516      	218.90636      	218.90831      	218.92111      	218.92609      	218.92944      	218.89943      	218.94366      	218.94452      	218.93886      	218.94305      	218.92474      	218.9454       	218.95456      	218.93216      	218.96892      	218.94142      	218.94281      	218.9519       	218.95638      	218.96518      	219.00764      	218.99658      	218.94452      	218.96817      	218.97751      	218.94347      	218.99901      	218.97182      	218.96303      	218.98953      	218.96524      	218.87547      	218.79665      	218.6744       	218.76524      	218.84901      	218.84406      	218.87898      	218.88649      	218.87985      	218.926        	218.97499      	218.99913      	219.08339      	219.0402       	219.0726       	219.02496      	219.01622      	219.01402      	219.04607      	
218.64594      	218.66414      	218.65326      	218.63574      	218.645        	218.62782      	218.64523      	218.67917      	218.65129      	218.66165      	218.63571      	218.62402      	218.68272      	218.62286      	218.64673      	218.64731      	218.61249      	218.67442      	218.64182      	218.64609      	218.67152      	218.64467      	218.66217      	218.6773       	218.66234      	218.66692      	218.6774       	218.66364      	218.66473      	218.67776      	218.66058      	218.66232      	218.6528       	218.67735      	218.70158      	218.66925      	218.70804      	218.69354      	218.68471      	218.69981      	218.67065      	218.67137      	218.69496      	218.66757      	218.65364      	218.66891      	218.69872      	218.65147      	218.65836      	218.65497      	218.67145      	218.69508      	218.67366      	218.67203      	218.64127      	218.65216      	218.6245       	218.63753      	218.66177      	218.65257      	218.65031      	218.68997      	218.68552      	218.6786       	218.67131      	218.67026      	218.64487      	218.67683      	218.66476      	218.70532      	218.67026      	218.69312      	218.69952      	218.69687      	218.6786       	218.6859       	218.70383      	218.7058       	218.67532      	218.69466      	218.70314      	218.69678      	218.60654      	218.42494      	218.47867      	218.56982      	218.61423      	218.59518      	218.57468      	218.61784      	218.6173       	218.71205      	218.75066      	218.86703      	218.89607      	218.76956      	218.71516      	218.70874      	218.68791      	218.67905      	
219.14578      	219.10083      	219.12912      	219.1315       	219.11996      	219.12816      	219.10928      	219.12904      	219.11116      	219.12099      	219.12302      	219.13571      	219.12018      	219.09032      	219.10524      	219.1492       	219.15811      	219.14285      	219.08466      	219.10188      	219.08928      	219.08583      	219.1077       	219.08331      	219.08766      	219.0881       	219.10219      	219.07706      	219.10516      	219.11508      	219.12668      	219.0657       	219.07596      	219.10149      	219.08864      	219.08064      	219.09782      	219.04637      	219.09578      	219.04842      	219.05133      	219.03122      	219.04541      	219.05531      	219.07224      	219.04611      	219.07649      	219.06679      	219.04875      	219.07614      	219.08176      	219.08144      	219.05148      	219.03976      	219.06769      	219.06227      	219.04669      	219.0588       	219.04109      	219.03824      	219.02888      	219.0471       	219.01833      	219.03673      	219.00473      	219.03839      	219.01315      	219.00328      	219.00665      	219.02943      	219.05031      	219.01224      	219.03354      	219.03745      	218.98308      	218.9899       	218.97511      	218.96623      	218.96861      	218.96486      	218.9633       	218.99828      	218.99588      	218.92795      	218.86932      	218.84863      	218.8515       	218.85         	218.87457      	218.8764       	218.85158      	218.94235      	218.95221      	219.08415      	219.0196       	218.97325      	218.93578      	218.92746      	218.94394      	218.9402       	
219.37701      	219.34889      	219.37823      	219.40677      	219.37767      	219.35245      	219.37462      	219.38411      	219.37737      	219.36908      	219.38202      	219.37534      	219.37424      	219.40797      	219.40558      	219.41434      	219.40753      	219.42726      	219.40236      	219.42458      	219.42567      	219.40439      	219.40471      	219.39027      	219.43373      	219.40701      	219.35468      	219.35175      	219.38307      	219.36928      	219.36412      	219.36754      	219.38966      	219.35449      	219.3765       	219.3552       	219.39056      	219.39574      	219.39322      	219.4165       	219.38222      	219.41075      	219.37526      	219.37134      	219.368        	219.37943      	219.35692      	219.37863      	219.34535      	219.40154      	219.39502      	219.39252      	219.3549       	219.38655      	219.37283      	219.38136      	219.363        	219.33136      	219.33376      	219.33943      	219.32903      	219.32748      	219.36398      	219.31952      	219.32715      	219.33173      	219.39153      	219.40334      	219.33817      	219.33708      	219.32545      	219.33978      	219.31703      	219.32709      	219.34016      	219.32397      	219.36261      	219.35822      	219.35524      	219.36526      	219.36783      	219.33438      	219.34668      	219.3498       	219.3473       	219.35948      	219.29012      	219.23233      	219.22682      	219.27351      	219.18669      	219.2302       	219.38754      	219.38843      	219.33131      	219.34393      	219.32083      	219.3233       	219.33675      	219.34676      	
219.51495      	219.49326      	219.49957      	219.51149      	219.50974      	219.56226      	219.53253      	219.50882      	219.50977      	219.52518      	219.4973       	219.49187      	219.5268       	219.51514      	219.49806      	219.5279       	219.49341      	219.50275      	219.52469      	219.50497      	219.51628      	219.52704      	219.49544      	219.50041      	219.49187      	219.49326      	219.4952       	219.50832      	219.52719      	219.47746      	219.52951      	219.47354      	219.46165      	219.49162      	219.47691      	219.43036      	219.43864      	219.45297      	219.49457      	219.4847       	219.46143      	219.45937      	219.4815       	219.49861      	219.5061       	219.49513      	219.47176      	219.50113      	219.51219      	219.5047       	219.49739      	219.5023       	219.49022      	219.48729      	219.50572      	219.46922      	219.47467      	219.46286      	219.45218      	219.47673      	219.47151      	219.48044      	219.47427      	219.47487      	219.46045      	219.48624      	219.46295      	219.44199      	219.47931      	219.4878       	219.46536      	219.44081      	219.45477      	219.49698      	219.49423      	219.45638      	219.46574      	219.47829      	219.4559       	219.44801      	219.45018      	219.45786      	219.45824      	219.48016      	219.47281      	219.43251      	219.49277      	219.4885       	219.48036      	219.46117      	219.48787      	219.46777      	219.46031      	219.46263      	219.46013      	219.4308       	219.41678      	219.42561      	219.43857      	219.44907      	
219.96443      	219.96793      	219.93773      	219.92511      	219.93187      	219.9319       	219.92894      	219.92757      	219.9695       	219.97032      	219.97119      	219.98366      	219.9726       	219.97623      	219.97339      	219.9684       	219.97395      	219.95973      	219.98248      	219.9921       	219.96199      	220.00919      	219.99536      	219.98926      	219.94672      	219.93651      	219.95126      	219.98167      	219.96742      	219.93066      	219.95612      	219.92245      	219.97014      	219.89645      	219.92668      	219.92722      	219.91281      	219.91586      	219.90869      	219.90773      	219.92313      	219.89917      	219.91501      	219.89648      	219.91148      	219.89552      	219.8825       	219.88742      	219.90584      	219.85614      	219.89648      	219.90236      	219.90965      	219.90779      	219.87445      	219.89452      	219.87033      	219.91702      	219.88013      	219.89621      	219.86974      	219.90814      	219.91466      	219.90085      	219.90973      	219.89754      	219.89453      	219.89769      	219.92186      	219.93036      	219.89032      	219.91006      	219.87851      	219.88817      	219.87338      	219.88388      	219.86472      	219.87508      	219.87408      	219.8817       	219.87827      	219.87425      	219.87885      	219.93617      	219.8933       	219.9384       	219.92986      	219.90935      	219.85345      	219.87811      	219.8461       	219.863        	219.86035      	219.85915      	219.87248      	219.8719       	219.85558      	219.83585      	219.83449      	219.8473       	
219.82071      	219.86249      	219.88402      	219.87378      	219.87077      	219.82541      	219.85585      	219.87263      	219.86484      	219.8692       	219.87274      	219.88705      	219.86896      	219.8766       	219.8987       	219.87279      	219.89812      	219.86258      	219.87917      	219.86407      	219.87573      	219.90977      	219.88199      	219.90616      	219.90866      	219.87807      	219.91176      	219.92351      	219.91087      	219.91078      	219.90997      	219.87859      	219.9079       	219.91002      	219.89993      	219.94254      	219.90298      	219.89655      	219.89577      	219.89938      	219.9241       	219.89914      	219.91205      	219.88379      	219.89256      	219.93956      	219.91365      	219.93222      	219.91637      	219.9131       	219.945        	219.9203       	219.92993      	219.92694      	219.90591      	219.90152      	219.92455      	219.9186       	219.89786      	219.90778      	219.92442      	219.9422       	219.95074      	219.92244      	219.93692      	219.9331       	219.93147      	219.9131       	219.9098       	219.90883      	219.94016      	219.96002      	219.91986      	219.95296      	219.94826      	220.00027      	219.97874      	219.96638      	219.94516      	219.94435      	219.9572       	219.96924      	219.9668       	219.98898      	219.97719      	219.97119      	220.00562      	219.9996       	219.96097      	219.98747      	219.99664      	219.96182      	219.97876      	219.95866      	219.98732      	219.96046      	219.9632       	219.94838      	219.98753      	219.94765      	
219.51335      	219.5188       	219.54875      	219.55183      	219.52002      	219.58228      	219.54855      	219.55444      	219.58417      	219.55055      	219.50325      	219.51862      	219.52292      	219.53899      	219.5192       	219.51807      	219.52414      	219.5191       	219.50024      	219.53506      	219.52406      	219.54526      	219.52133      	219.536        	219.5787       	219.5237       	219.54793      	219.57323      	219.5528       	219.56703      	219.56415      	219.54556      	219.56418      	219.56812      	219.57137      	219.574        	219.55084      	219.58995      	219.60333      	219.61084      	219.60614      	219.57993      	219.6131       	219.55862      	219.60712      	219.55313      	219.58917      	219.59589      	219.61371      	219.59616      	219.5904       	219.58981      	219.59206      	219.5769       	219.60997      	219.59344      	219.61803      	219.58699      	219.59686      	219.58493      	219.57886      	219.5994       	219.56393      	219.58136      	219.60686      	219.60777      	219.61777      	219.62543      	219.64397      	219.66098      	219.69101      	219.66171      	219.6543       	219.65834      	219.65593      	219.70274      	219.64952      	219.65253      	219.68921      	219.70921      	219.69183      	219.67136      	219.70383      	219.58656      	219.58144      	219.54996      	219.55988      	219.64981      	219.69461      	219.70816      	219.74275      	219.74022      	219.75253      	219.70132      	219.74358      	219.69995      	219.72095      	219.74446      	219.76035      	219.74136      	
219.46532      	219.50911      	219.49602      	219.51227      	219.47015      	219.47472      	219.4949       	219.48582      	219.46086      	219.49464      	219.48378      	219.48654      	219.47835      	219.4708       	219.48708      	219.45824      	219.44711      	219.47694      	219.45682      	219.50272      	219.42393      	219.42018      	219.44943      	219.41913      	219.44139      	219.38654      	219.42679      	219.45216      	219.4376       	219.4273       	219.45158      	219.4639       	219.44385      	219.47232      	219.48636      	219.49498      	219.43607      	219.45529      	219.47513      	219.47902      	219.46774      	219.38829      	219.42894      	219.4186       	219.4148       	219.41713      	219.41064      	219.47531      	219.4262       	219.42902      	219.43985      	219.42508      	219.45312      	219.44019      	219.4344       	219.39792      	219.42198      	219.44872      	219.4282       	219.42743      	219.43085      	219.41376      	219.41132      	219.4376       	219.41669      	219.43007      	219.43596      	219.41197      	219.439        	219.41843      	219.43077      	219.42693      	219.44337      	219.42244      	219.433        	219.42773      	219.42334      	219.42943      	219.43361      	219.45624      	219.44727      	219.43187      	219.48595      	219.46085      	219.47467      	219.4488       	219.44131      	219.47388      	219.42181      	219.51343      	219.48746      	219.45895      	219.44754      	219.47198      	219.44246      	219.42279      	219.42812      	219.43964      	219.43253      	219.44472      	
219.60147      	219.60109      	219.56383      	219.59137      	219.56697      	219.6009       	219.609        	219.58994      	219.5761       	219.61523      	219.61832      	219.60965      	219.59854      	219.64641      	219.6102       	219.59383      	219.60602      	219.61375      	219.62062      	219.62451      	219.63351      	219.6504       	219.59427      	219.58038      	219.55476      	219.60237      	219.5994       	219.56613      	219.6014       	219.56778      	219.5736       	219.60773      	219.60173      	219.59344      	219.57558      	219.5617       	219.60341      	219.61589      	219.56609      	219.59277      	219.58835      	219.60768      	219.60757      	219.60513      	219.59982      	219.60187      	219.64207      	219.63548      	219.61183      	219.59879      	219.58919      	219.57394      	219.55751      	219.57924      	219.54137      	219.56345      	219.56546      	219.5787       	219.56592      	219.57742      	219.59425      	219.56158      	219.57715      	219.5747       	219.57147      	219.5978       	219.59117      	219.59244      	219.58014      	219.56949      	219.56134      	219.57005      	219.57855      	219.55307      	219.56389      	219.57146      	219.5753       	219.57455      	219.56674      	219.55957      	219.55655      	219.52548      	219.55312      	219.55104      	219.5368       	219.56282      	219.54913      	219.57         	219.5475       	219.56717      	219.55971      	219.57083      	219.56389      	219.53317      	219.54437      	219.5693       	219.55797      	219.53906      	219.55516      	219.542        	
219.42058      	219.40353      	219.44237      	219.41692      	219.42076      	219.43471      	219.40665      	219.4431       	219.4338       	219.48772      	219.51427      	219.49324      	219.49155      	219.50677      	219.48616      	219.47299      	219.49031      	219.49371      	219.49268      	219.45793      	219.48288      	219.44179      	219.4096       	219.4315       	219.4361       	219.43466      	219.44594      	219.44095      	219.4614       	219.47142      	219.48796      	219.44785      	219.44289      	219.47533      	219.4864       	219.4655       	219.45825      	219.45352      	219.44376      	219.51027      	219.48544      	219.4592       	219.5087       	219.4645       	219.49236      	219.4723       	219.48526      	219.5077       	219.46191      	219.4787       	219.49501      	219.48615      	219.4873       	219.51353      	219.49203      	219.47598      	219.50722      	219.51056      	219.51414      	219.50568      	219.49074      	219.49396      	219.50163      	219.53621      	219.52678      	219.52252      	219.49913      	219.50385      	219.50319      	219.48553      	219.51302      	219.5134       	219.47803      	219.52682      	219.51707      	219.50543      	219.5332       	219.49168      	219.48682      	219.50383      	219.52257      	219.50082      	219.53868      	219.56253      	219.5183       	219.53043      	219.4899       	219.51364      	219.51816      	219.50845      	219.5151       	219.51538      	219.50795      	219.51346      	219.55148      	219.52382      	219.52858      	219.5123       	219.50143      	219.52196      	
219.31815      	219.31772      	219.33104      	219.31906      	219.31815      	219.3342       	219.33348      	219.36401      	219.34865      	219.33673      	219.3601       	219.33374      	219.37083      	219.37395      	219.3696       	219.35294      	219.34644      	219.35359      	219.37367      	219.35622      	219.37286      	219.37161      	219.36783      	219.38005      	219.34856      	219.33885      	219.36206      	219.34238      	219.34735      	219.32942      	219.34726      	219.38141      	219.32616      	219.32579      	219.34972      	219.39438      	219.35321      	219.3236       	219.37183      	219.34668      	219.34204      	219.35477      	219.31184      	219.34407      	219.3348       	219.34378      	219.33578      	219.31992      	219.36174      	219.34935      	219.34383      	219.3457       	219.34097      	219.31407      	219.29105      	219.35687      	219.29965      	219.32599      	219.32643      	219.3453       	219.35611      	219.35199      	219.32578      	219.34196      	219.36069      	219.3476       	219.37357      	219.35042      	219.34889      	219.34644      	219.34563      	219.35101      	219.35448      	219.37894      	219.33212      	219.32843      	219.28925      	219.28683      	219.32706      	219.33723      	219.33841      	219.3435       	219.4046       	219.36247      	219.38982      	219.36784      	219.33586      	219.36838      	219.35512      	219.3238       	219.36732      	219.3649       	219.36876      	219.33302      	219.34758      	219.3557       	219.38156      	219.3898       	219.39716      	219.3798       	
219.39406      	219.40672      	219.41183      	219.43349      	219.43507      	219.44945      	219.48798      	219.43596      	219.41579      	219.40953      	219.41217      	219.43028      	219.40038      	219.4244       	219.42552      	219.43968      	219.39388      	219.42317      	219.44783      	219.46819      	219.4671       	219.4772       	219.46864      	219.48145      	219.4759       	219.47499      	219.48582      	219.47858      	219.48546      	219.47198      	219.4751       	219.50111      	219.47464      	219.51303      	219.53282      	219.48592      	219.50485      	219.48943      	219.52505      	219.516        	219.52457      	219.5651       	219.53636      	219.5277       	219.5429       	219.50853      	219.50604      	219.49525      	219.5087       	219.53111      	219.50548      	219.4929       	219.49757      	219.49144      	219.55544      	219.5          	219.51483      	219.49965      	219.46436      	219.48866      	219.52277      	219.52293      	219.48836      	219.48038      	219.49771      	219.4747       	219.51137      	219.52623      	219.51994      	219.52467      	219.5503       	219.52106      	219.52449      	219.5145       	219.5467       	219.546        	219.52574      	219.53192      	219.54987      	219.55923      	219.54126      	219.52654      	219.50348      	219.50636      	219.50952      	219.46434      	219.49754      	219.46834      	219.46365      	219.47583      	219.47108      	219.47304      	219.43954      	219.42308      	219.45424      	219.46957      	219.44127      	219.45776      	219.4881       	219.46703      	
218.98141      	219.01903      	219.03784      	219.0289       	218.97919      	219.02321      	219.01967      	219.06859      	219.05078      	219.06609      	219.08792      	219.07274      	219.08568      	219.05957      	219.05614      	219.07558      	219.06665      	219.0875       	219.11955      	219.10825      	219.07983      	219.12273      	219.11868      	219.13268      	219.10352      	219.12723      	219.1372       	219.1105       	219.12254      	219.12027      	219.13396      	219.14728      	219.1424       	219.15811      	219.15186      	219.15396      	219.15868      	219.16193      	219.15022      	219.18279      	219.15251      	219.17862      	219.18427      	219.22084      	219.19699      	219.17386      	219.18105      	219.17955      	219.21555      	219.21707      	219.16644      	219.22586      	219.2109       	219.17938      	219.19675      	219.21446      	219.18669      	219.20314      	219.15567      	219.15318      	219.17282      	219.21365      	219.23732      	219.24135      	219.25189      	219.2584       	219.2245       	219.24391      	219.25267      	219.25139      	219.24724      	219.25838      	219.23956      	219.24944      	219.28676      	219.24738      	219.21947      	219.2028       	219.21867      	219.24599      	219.22421      	219.2706       	219.25743      	219.22044      	219.23535      	219.22931      	219.21902      	219.20767      	219.20271      	219.21999      	219.24974      	219.2383       	219.22763      	219.21613      	219.19995      	219.16183      	219.17172      	219.19724      	219.17937      	219.19049      	
218.69963      	218.68353      	218.6622       	218.65863      	218.661        	218.69417      	218.66107      	218.65416      	218.68419      	218.67665      	218.66791      	218.69032      	218.66235      	218.649        	218.64359      	218.6616       	218.65565      	218.68115      	218.69403      	218.68768      	218.72365      	218.69504      	218.70117      	218.68427      	218.70921      	218.70981      	218.69542      	218.71075      	218.71843      	218.71527      	218.69151      	218.66318      	218.63892      	218.70692      	218.68944      	218.6718       	218.65762      	218.65105      	218.67645      	218.64952      	218.69345      	218.67133      	218.68661      	218.69385      	218.65758      	218.68887      	218.68921      	218.67406      	218.69276      	218.68643      	218.71323      	218.71182      	218.6845       	218.69412      	218.683        	218.68596      	218.71698      	218.70224      	218.71304      	218.75827      	218.7044       	218.67223      	218.68912      	218.70128      	218.70102      	218.71043      	218.69678      	218.69339      	218.73898      	218.72112      	218.70688      	218.66228      	218.67247      	218.67828      	218.66922      	218.67914      	218.70132      	218.64748      	218.65631      	218.70567      	218.69781      	218.70554      	218.75375      	218.7035       	218.72975      	218.67375      	218.6843       	218.70355      	218.69183      	218.74094      	218.71054      	218.70035      	218.70346      	218.70926      	218.70555      	218.71695      	218.71548      	218.69315      	218.69667      	218.7347       	
218.99715      	218.98476      	218.96678      	218.96219      	218.9724       	218.9628       	218.97345      	218.96994      	218.95761      	218.95139      	218.95581      	218.96083      	218.96262      	218.959        	218.966        	218.94621      	218.97607      	218.96788      	218.9391       	218.96011      	218.93533      	218.94167      	218.95248      	218.963        	218.92133      	218.92523      	218.93001      	218.92311      	218.93333      	218.93675      	218.93288      	218.93709      	218.9459       	218.9562       	218.95079      	218.94423      	218.93594      	218.91919      	218.94357      	218.95016      	218.95493      	218.91113      	218.9109       	218.94846      	218.92885      	218.8919       	218.91609      	218.9052       	218.9119       	218.90309      	218.89499      	218.92815      	218.9269       	218.86469      	218.88695      	218.9069       	218.87387      	218.87918      	218.91064      	218.90332      	218.85971      	218.91835      	218.90219      	218.90701      	218.9051       	218.89354      	218.90196      	218.9048       	218.90099      	218.91266      	218.88702      	218.90916      	218.89763      	218.8818       	218.87924      	218.89853      	218.8821       	218.89406      	218.87468      	218.8619       	218.87259      	218.86533      	218.86263      	218.84879      	218.86156      	218.86002      	218.86124      	218.841        	218.81639      	218.78836      	218.80235      	218.82823      	218.8159       	218.82175      	218.82721      	218.83621      	218.86028      	218.83195      	218.82103      	218.81985      	
219.39006      	219.38812      	219.39206      	219.36223      	219.33186      	219.33469      	219.37117      	219.2947       	219.3327       	219.32414      	219.30894      	219.34544      	219.32007      	219.33383      	219.37033      	219.35768      	219.32257      	219.31244      	219.29979      	219.30838      	219.32819      	219.28952      	219.27565      	219.31407      	219.27824      	219.28035      	219.30159      	219.2587       	219.31012      	219.26498      	219.2774       	219.285        	219.29587      	219.3128       	219.28767      	219.33495      	219.31735      	219.29018      	219.29199      	219.23233      	219.24706      	219.3198       	219.28596      	219.35417      	219.31232      	219.26027      	219.28879      	219.27449      	219.2838       	219.27856      	219.29323      	219.26862      	219.2802       	219.271        	219.22697      	219.24104      	219.27017      	219.25027      	219.25458      	219.20865      	219.21828      	219.24637      	219.22145      	219.23836      	219.24481      	219.21259      	219.28842      	219.27103      	219.2418       	219.26129      	219.24686      	219.23874      	219.24278      	219.24828      	219.207        	219.22868      	219.19604      	219.20055      	219.19997      	219.20198      	219.18521      	219.22556      	219.23456      	219.19675      	219.17722      	219.18202      	219.17503      	219.18983      	219.16861      	219.1965       	219.18024      	219.18178      	219.16055      	219.16498      	219.15837      	219.19614      	219.16422      	219.13646      	219.14589      	219.13275      	
219.29715      	219.2823       	219.24617      	219.27853      	219.26964      	219.284        	219.27187      	219.22342      	219.25758      	219.25015      	219.23795      	219.21935      	219.24973      	219.24428      	219.2627       	219.26207      	219.25455      	219.26392      	219.25084      	219.27455      	219.27019      	219.28966      	219.2573       	219.29158      	219.26833      	219.29503      	219.29205      	219.25534      	219.25063      	219.27951      	219.28198      	219.25021      	219.27278      	219.27173      	219.29698      	219.30325      	219.27261      	219.31119      	219.29987      	219.28928      	219.27618      	219.32584      	219.30386      	219.27937      	219.29478      	219.29222      	219.34068      	219.30544      	219.27614      	219.33162      	219.31833      	219.33455      	219.35205      	219.38339      	219.38942      	219.3619       	219.33583      	219.35721      	219.30417      	219.36563      	219.35135      	219.36319      	219.35365      	219.34174      	219.37894      	219.3585       	219.32608      	219.30858      	219.28366      	219.36205      	219.32864      	219.35219      	219.36676      	219.33049      	219.34042      	219.34944      	219.33992      	219.34727      	219.33765      	219.34505      	219.37318      	219.396        	219.39346      	219.42332      	219.31984      	219.36826      	219.37807      	219.36232      	219.36935      	219.37492      	219.37294      	219.3697       	219.39641      	219.38968      	219.3587       	219.35782      	219.35214      	219.32669      	219.33302      	219.32016      	
219.37288      	219.35895      	219.3667       	219.36447      	219.3547       	219.3548       	219.36368      	219.37343      	219.36563      	219.35728      	219.37502      	219.32863      	219.3447       	219.38573      	219.32663      	219.29164      	219.327        	219.33311      	219.33034      	219.32262      	219.29222      	219.30136      	219.32608      	219.3064       	219.31102      	219.30258      	219.29037      	219.30379      	219.32486      	219.30249      	219.27414      	219.33504      	219.3057       	219.31183      	219.31389      	219.34052      	219.30136      	219.30412      	219.31982      	219.35272      	219.32848      	219.27596      	219.28981      	219.30356      	219.30441      	219.30592      	219.30565      	219.28903      	219.27557      	219.31102      	219.29115      	219.2709       	219.3091       	219.33871      	219.31667      	219.34789      	219.338        	219.34642      	219.35028      	219.28851      	219.32191      	219.31372      	219.33595      	219.30954      	219.31445      	219.30919      	219.35406      	219.32925      	219.30298      	219.31119      	219.31711      	219.2952       	219.30989      	219.28604      	219.28287      	219.3052       	219.31671      	219.29034      	219.31285      	219.2836       	219.24472      	219.2661       	219.27716      	219.25809      	219.24828      	219.23543      	219.2455       	219.25041      	219.23778      	219.22707      	219.22792      	219.24542      	219.25157      	219.2473       	219.2193       	219.23041      	219.22865      	219.22643      	219.20143      	219.22076      	
219.31999      	219.34691      	219.31503      	219.32956      	219.31973      	219.3122       	219.3454       	219.33244      	219.33087      	219.30347      	219.27501      	219.29256      	219.29523      	219.26451      	219.28065      	219.28767      	219.29108      	219.309        	219.2944       	219.31317      	219.29669      	219.28651      	219.31708      	219.3118       	219.29291      	219.28557      	219.31578      	219.28548      	219.32181      	219.30023      	219.30428      	219.31435      	219.30673      	219.30475      	219.31969      	219.34605      	219.28989      	219.32455      	219.2972       	219.28526      	219.3087       	219.29909      	219.3523       	219.34747      	219.32861      	219.34232      	219.3256       	219.36691      	219.33434      	219.33759      	219.34831      	219.34389      	219.37155      	219.34163      	219.33568      	219.36392      	219.33646      	219.32219      	219.35226      	219.3343       	219.32356      	219.30865      	219.31697      	219.33562      	219.33472      	219.31288      	219.32341      	219.35712      	219.32643      	219.31624      	219.32         	219.28407      	219.40831      	219.41368      	219.3746       	219.38197      	219.33902      	219.3331       	219.33336      	219.35582      	219.34212      	219.32777      	219.2807       	219.36026      	219.34244      	219.3286       	219.34026      	219.33742      	219.32864      	219.32799      	219.3772       	219.38577      	219.38202      	219.41441      	219.3808       	219.36328      	219.38052      	219.38689      	219.34206      	219.34288      	
219.57123      	219.57195      	219.57854      	219.56212      	219.59079      	219.58026      	219.5773       	219.61107      	219.5934       	219.55856      	219.57323      	219.5729       	219.56789      	219.55324      	219.55255      	219.5388       	219.54965      	219.55891      	219.5113       	219.52231      	219.51833      	219.48438      	219.53938      	219.50385      	219.4888       	219.55019      	219.51698      	219.5179       	219.52126      	219.51207      	219.4961       	219.497        	219.48576      	219.4713       	219.47739      	219.47885      	219.49681      	219.52184      	219.46071      	219.47989      	219.48918      	219.46739      	219.47484      	219.47192      	219.47566      	219.48048      	219.48807      	219.4887       	219.48233      	219.48306      	219.48643      	219.4878       	219.47716      	219.48563      	219.4563       	219.49625      	219.56049      	219.50348      	219.53069      	219.53296      	219.4889       	219.51799      	219.50545      	219.53807      	219.53078      	219.48595      	219.476        	219.4512       	219.44806      	219.47339      	219.43382      	219.45831      	219.46515      	219.47241      	219.48085      	219.4633       	219.46681      	219.42665      	219.42792      	219.4563       	219.42226      	219.41978      	219.42375      	219.42987      	219.41895      	219.43677      	219.44133      	219.43773      	219.3878       	219.4059       	219.41818      	219.42221      	219.44945      	219.40167      	219.41373      	219.41116      	219.41823      	219.4387       	219.45485      	219.46729      	
219.72198      	219.72081      	219.71825      	219.6915       	219.72281      	219.70006      	219.70517      	219.72292      	219.66771      	219.71631      	219.70174      	219.71397      	219.73367      	219.69002      	219.70018      	219.70541      	219.65704      	219.69193      	219.70567      	219.68417      	219.71332      	219.71443      	219.684        	219.70909      	219.71982      	219.69304      	219.71823      	219.70258      	219.72214      	219.71834      	219.71864      	219.70468      	219.72513      	219.73233      	219.71484      	219.79372      	219.72035      	219.73134      	219.73161      	219.70575      	219.69156      	219.702        	219.7286       	219.71658      	219.7068       	219.68622      	219.70982      	219.70924      	219.7057       	219.71786      	219.6826       	219.70848      	219.68033      	219.68256      	219.70473      	219.6859       	219.6822       	219.66414      	219.71916      	219.74113      	219.71976      	219.70975      	219.66986      	219.67523      	219.72649      	219.66301      	219.67319      	219.6485       	219.67465      	219.65546      	219.67027      	219.67653      	219.67764      	219.69214      	219.68694      	219.66576      	219.65546      	219.64467      	219.68066      	219.64104      	219.66766      	219.65843      	219.67348      	219.6574       	219.64401      	219.68863      	219.66266      	219.67236      	219.66225      	219.63037      	219.67783      	219.68132      	219.60101      	219.57675      	219.53209      	219.57468      	219.48917      	219.53671      	219.64352      	219.6319       	
219.78725      	219.79149      	219.76047      	219.77646      	219.79002      	219.81386      	219.83423      	219.81204      	219.78557      	219.79584      	219.79745      	219.80843      	219.83507      	219.8098       	219.81721      	219.80023      	219.79843      	219.79088      	219.81828      	219.78572      	219.80753      	219.82892      	219.78719      	219.79356      	219.82364      	219.8253       	219.82628      	219.8015       	219.83217      	219.84995      	219.8301       	219.82666      	219.79411      	219.80919      	219.83105      	219.85422      	219.83902      	219.86572      	219.8234       	219.83301      	219.81961      	219.83852      	219.85619      	219.817        	219.80388      	219.82977      	219.83185      	219.84499      	219.81448      	219.79141      	219.76376      	219.79712      	219.80655      	219.78624      	219.77199      	219.7953       	219.8156       	219.76584      	219.80106      	219.7889       	219.79663      	219.77292      	219.75731      	219.79271      	219.78488      	219.75429      	219.75311      	219.76198      	219.77023      	219.79646      	219.76605      	219.76251      	219.75572      	219.74983      	219.74486      	219.76234      	219.74039      	219.76256      	219.74683      	219.75644      	219.76099      	219.7466       	219.75998      	219.72745      	219.75168      	219.75632      	219.7041       	219.66379      	219.49637      	219.51433      	219.55478      	219.56664      	219.53044      	219.47179      	219.61497      	219.63103      	219.64885      	219.64175      	219.5957       	219.60355      	
219.41441      	219.40918      	219.4191       	219.39854      	219.38431      	219.40785      	219.42429      	219.4385       	219.41966      	219.43515      	219.3987       	219.41481      	219.42766      	219.409        	219.44257      	219.3913       	219.41002      	219.43285      	219.44702      	219.4139       	219.40926      	219.42947      	219.45367      	219.45047      	219.4212       	219.44138      	219.31932      	219.23343      	219.2506       	219.4715       	219.40463      	219.26357      	219.49344      	219.34811      	219.25397      	219.17952      	219.22794      	219.25912      	219.31992      	219.27507      	219.25513      	219.37865      	219.35886      	219.31044      	219.40028      	219.44946      	219.48781      	219.44441      	219.37733      	219.3666       	219.47487      	219.46313      	219.39111      	219.43527      	219.37059      	219.48161      	219.46556      	219.42426      	219.51956      	219.58717      	219.5808       	219.57724      	219.58739      	219.57143      	219.59149      	219.61278      	219.63843      	219.62315      	219.6212       	219.62738      	219.6194       	219.61974      	219.59392      	219.59003      	219.62015      	219.61281      	219.59164      	219.61818      	219.63118      	219.62672      	219.63142      	219.63419      	219.61426      	219.65681      	219.63924      	219.62825      	219.6787       	219.64502      	219.48187      	219.61928      	219.61751      	219.65587      	219.6362       	219.64104      	219.66147      	219.64027      	219.66498      	219.65862      	219.6426       	219.6641       	
219.09982      	219.09897      	219.10057      	219.0836       	219.08705      	219.11174      	219.07332      	219.10062      	219.113        	219.09335      	219.12038      	219.08104      	219.10155      	219.07225      	219.08746      	219.11783      	219.07181      	219.06549      	219.08018      	219.08105      	219.1053       	219.11223      	219.0961       	219.0993       	219.09561      	218.96483      	218.8609       	218.98811      	219.06151      	219.07217      	219.06062      	219.1206       	219.02802      	219.02296      	219.03648      	219.07004      	219.09138      	219.05553      	219.0289       	219.09921      	219.07335      	219.1249       	219.08936      	219.09225      	219.08536      	219.04796      	219.12567      	219.13132      	219.13844      	219.12999      	219.13243      	219.14243      	219.15944      	219.14528      	219.1559       	219.10654      	219.1346       	219.25377      	219.18483      	219.159        	219.1515       	219.1641       	219.1898       	219.2102       	219.25558      	219.22113      	219.26213      	219.20587      	219.22813      	219.22574      	219.24767      	219.26096      	219.25015      	219.2798       	219.25182      	219.24208      	219.2448       	219.28505      	219.29013      	219.27077      	219.2627       	219.28177      	219.30705      	219.27243      	219.27322      	219.282        	219.29648      	219.2078       	219.02184      	219.19554      	219.23175      	219.26353      	219.24277      	219.23798      	219.22081      	219.21999      	219.22386      	219.19855      	219.21361      	219.21365      	
219.17114      	219.16054      	219.16586      	219.17722      	219.14557      	219.15025      	219.1415       	219.1658       	219.15427      	219.12778      	219.14948      	219.14153      	219.10808      	219.1028       	219.129        	219.12337      	219.16171      	219.15959      	219.1598       	219.1489       	219.12778      	219.1008       	219.11769      	219.13016      	219.13885      	218.96696      	218.92075      	219.05737      	219.05574      	219.06184      	219.04369      	219.05331      	219.06895      	219.05446      	219.04778      	219.03223      	219.02243      	219.03572      	219.04259      	219.0543       	219.03099      	219.02574      	219.04153      	219.0279       	219.0469       	219.01988      	219.04181      	219.03099      	219.04837      	219.01608      	219.01633      	219.0486       	219.02806      	219.05026      	219.04239      	219.04279      	219.08372      	219.00172      	219.01974      	219.09659      	219.07848      	219.04385      	219.05458      	219.10333      	219.07423      	219.07486      	219.06598      	219.04988      	219.07892      	219.10605      	219.08057      	219.07945      	219.09424      	219.07414      	219.07788      	219.06664      	219.04771      	219.08609      	219.08563      	219.02304      	219.04437      	219.06372      	219.07599      	219.04747      	219.04028      	219.05551      	219.05687      	219.02382      	218.87001      	218.97264      	218.97093      	218.9866       	218.99495      	218.9963       	218.98013      	218.9819       	218.97296      	218.96889      	218.98235      	218.97324      	
219.22943      	219.1964       	219.20639      	219.22247      	219.19676      	219.17966      	219.18832      	219.18115      	219.18214      	219.18668      	219.14789      	219.15268      	219.18817      	219.1652       	219.19261      	219.1691       	219.2098       	219.18178      	219.17294      	219.21475      	219.21169      	219.18434      	219.14493      	219.17441      	219.157        	219.15257      	219.0075       	219.03932      	219.1553       	219.13167      	219.12766      	219.11696      	219.11916      	219.13614      	219.13153      	219.11914      	219.12746      	219.13588      	219.16788      	219.15065      	219.14305      	219.13443      	219.1745       	219.15872      	219.11664      	219.13785      	219.14119      	219.14223      	219.15527      	219.13965      	219.14426      	219.1441       	219.16493      	219.13092      	219.16055      	219.14348      	219.17706      	219.3224       	219.15251      	219.15689      	219.18259      	219.1701       	219.16425      	219.17024      	219.19142      	219.19008      	219.20395      	219.17772      	219.21194      	219.19254      	219.15546      	219.18822      	219.17578      	219.17554      	219.16034      	219.1639       	219.1521       	219.17267      	219.13737      	219.13112      	219.17328      	219.21097      	219.17116      	219.15852      	219.15001      	219.18552      	219.20847      	219.11258      	218.92146      	219.12874      	219.1364       	219.11879      	219.13918      	219.10716      	219.13908      	219.13077      	219.15294      	219.12775      	219.10117      	219.12784      	
219.03671      	219.04361      	219.09427      	219.0848       	219.03621      	219.05615      	219.08987      	219.11624      	219.08853      	219.08566      	219.07034      	219.07431      	219.0873       	219.11311      	219.11566      	219.07587      	219.11887      	219.07         	219.088        	219.11855      	219.09726      	219.06479      	219.10652      	219.1175       	219.13284      	219.05824      	218.8681       	219.01266      	219.06674      	219.06812      	219.05373      	219.03065      	219.06874      	219.08878      	219.10257      	219.11835      	219.10107      	219.08856      	219.08719      	219.10564      	219.12491      	219.10655      	219.1263       	219.1138       	219.10442      	219.11478      	219.10744      	219.10237      	219.12206      	219.14143      	219.09962      	219.15765      	219.13968      	219.13966      	219.1561       	219.13205      	219.17781      	219.25919      	219.22488      	219.16145      	219.16922      	219.19162      	219.1826       	219.20963      	219.17293      	219.17433      	219.18051      	219.19241      	219.18333      	219.20085      	219.17934      	219.21812      	219.2037       	219.15463      	219.20662      	219.18796      	219.19086      	219.18962      	219.17458      	219.2132       	219.1822       	219.16188      	219.1961       	219.16762      	219.20166      	219.19933      	219.19821      	219.11287      	218.94713      	219.07562      	219.03876      	219.15744      	219.18378      	219.16055      	219.11978      	219.17844      	219.18509      	219.18886      	219.16232      	219.21046      	
218.68991      	218.63527      	218.63841      	218.6623       	218.65521      	218.68137      	218.68512      	218.68442      	218.71202      	218.67093      	218.68382      	218.64064      	218.64552      	218.6662       	218.66173      	218.6723       	218.6854       	218.68515      	218.63673      	218.6206       	218.61499      	218.63574      	218.6233       	218.62286      	218.60262      	218.58154      	218.42732      	218.5646       	218.6033       	218.57982      	218.6023       	218.61314      	218.6072       	218.61426      	218.6337       	218.62692      	218.65495      	218.63226      	218.6072       	218.6671       	218.63866      	218.64963      	218.65756      	218.65419      	218.66783      	218.70424      	218.6744       	218.6579       	218.66782      	218.67093      	218.63843      	218.64743      	218.65509      	218.6673       	218.57527      	218.63467      	218.68692      	218.75         	218.67531      	218.68678      	218.68285      	218.67578      	218.73119      	218.68953      	218.70145      	218.71243      	218.66716      	218.71771      	218.69052      	218.70688      	218.71417      	218.69383      	218.687        	218.7242       	218.76637      	218.7334       	218.70338      	218.75352      	218.72716      	218.73956      	218.7346       	218.71251      	218.76122      	218.72298      	218.73294      	218.74535      	218.7306       	218.65627      	218.52118      	218.65451      	218.72867      	218.70322      	218.73538      	218.69646      	218.7045       	218.69565      	218.70291      	218.71037      	218.71906      	218.7259       	
218.97586      	218.96951      	218.97183      	218.96938      	218.97339      	218.99762      	219.0248       	218.98299      	218.9545       	218.91406      	218.91934      	218.94931      	218.92868      	218.92497      	218.91447      	218.88333      	218.88101      	218.86499      	218.89192      	218.90802      	218.88962      	218.84723      	218.85733      	218.88112      	218.89561      	218.76776      	218.64296      	218.81073      	218.8164       	218.84325      	218.82767      	218.82773      	218.81122      	218.7772       	218.76564      	218.7819       	218.81087      	218.79997      	218.80246      	218.77646      	218.78339      	218.8025       	218.79718      	218.80484      	218.82138      	218.83078      	218.82413      	218.82         	218.82767      	218.7665       	218.78065      	218.82397      	218.80106      	218.79213      	218.78029      	218.79419      	218.80719      	218.94565      	218.79779      	218.84158      	218.81071      	218.77748      	218.77374      	218.82034      	219.00496      	220.34326      	220.37474      	218.91266      	218.78485      	218.78116      	218.7732       	218.75352      	218.74823      	218.73526      	218.73325      	218.74551      	218.74413      	218.68767      	218.73447      	218.70404      	218.71288      	218.73431      	218.69215      	218.6911       	218.72594      	218.69597      	218.7132       	218.53741      	218.40245      	218.61632      	218.65395      	218.66139      	218.65099      	218.6662       	218.62793      	218.64513      	218.64337      	218.6167       	218.61751      	218.61607      	
219.43724      	219.43126      	219.4361       	219.45534      	219.42561      	219.42323      	219.41658      	219.40135      	219.40656      	219.42645      	219.41891      	219.38766      	219.383        	219.38828      	219.39038      	219.36745      	219.38248      	219.38274      	219.38916      	219.37625      	219.3366       	219.35062      	219.32655      	219.33202      	219.33325      	219.2705       	219.12189      	219.20114      	219.3026       	219.3423       	219.31174      	219.30869      	219.3045       	219.29105      	219.25511      	219.27516      	219.29996      	219.27216      	219.25465      	219.21942      	219.24277      	219.29633      	219.25668      	219.28488      	219.26384      	219.26399      	219.26694      	219.26813      	219.25577      	219.2762       	219.27374      	219.26007      	219.2884       	219.32635      	219.26407      	219.23671      	219.24852      	219.20218      	219.31488      	219.26999      	219.27821      	219.27602      	219.30838      	219.25928      	219.26915      	219.28098      	219.25105      	219.2644       	219.25374      	219.24861      	219.27676      	219.25055      	219.27179      	219.23863      	219.2573       	219.24977      	219.27756      	219.27426      	219.27026      	219.28459      	219.26381      	219.27365      	219.24599      	219.26698      	219.25774      	219.25359      	219.24657      	219.09106      	219.05116      	219.16347      	219.1915       	219.19186      	219.16864      	219.18141      	219.16364      	219.16486      	219.19652      	219.21072      	219.19933      	219.21819      	
219.54526      	219.55956      	219.54662      	219.54509      	219.51768      	219.50934      	219.52536      	219.49176      	219.53384      	219.50868      	219.48096      	219.51399      	219.49327      	219.49124      	219.48834      	219.51903      	219.51207      	219.49219      	219.51797      	219.47534      	219.49075      	219.50165      	219.49586      	219.49107      	219.5034       	219.43883      	219.2111       	219.42418      	219.46437      	219.47581      	219.44849      	219.46776      	219.49074      	219.43112      	219.44102      	219.47096      	219.5118       	219.50725      	219.50677      	219.56007      	219.4698       	219.50339      	219.52594      	219.48383      	219.48813      	219.5052       	219.4912       	219.54991      	219.50568      	219.50774      	219.50885      	219.5017       	219.503        	219.53964      	219.5171       	219.49362      	219.5069       	219.5852       	219.54128      	219.52989      	219.5259       	219.53026      	219.5372       	219.54475      	219.50002      	219.53734      	219.52557      	219.52473      	219.5599       	219.54013      	219.5456       	219.51816      	219.53616      	219.51854      	219.5367       	219.5776       	219.55972      	219.56923      	219.50629      	219.52718      	219.57959      	219.53043      	219.55548      	219.50569      	219.54085      	219.53009      	219.55016      	219.4787       	219.27466      	219.45062      	219.48764      	219.48961      	219.51578      	219.50189      	219.50763      	219.50764      	219.50699      	219.52647      	219.52045      	219.51848      	
219.32388      	219.35355      	219.35667      	219.37425      	219.34665      	219.38422      	219.33635      	219.40047      	219.36932      	219.33926      	219.35638      	219.37807      	219.41092      	219.39728      	219.38516      	219.3724       	219.37775      	219.37589      	219.42487      	219.38625      	219.34904      	219.34645      	219.3624       	219.37988      	219.33176      	219.28238      	219.13441      	219.21103      	219.30783      	219.3562       	219.33308      	219.32675      	219.35777      	219.32663      	219.323        	219.36008      	219.38672      	219.43451      	219.43459      	219.39183      	219.38364      	219.419        	219.41815      	219.43164      	219.42426      	219.40834      	219.40689      	219.42122      	219.37352      	219.4382       	219.44327      	219.41298      	219.44164      	219.42212      	219.44745      	219.44212      	219.45872      	219.54279      	219.44069      	219.48679      	219.46152      	219.48004      	219.47371      	219.4888       	219.50902      	219.48291      	219.4704       	219.46649      	219.488        	219.45998      	219.48674      	219.48251      	219.45294      	219.45778      	219.4315       	219.45612      	219.41983      	219.39055      	219.37936      	219.38834      	219.40828      	219.43332      	219.41632      	219.38602      	219.41626      	219.39761      	219.43489      	219.37874      	219.16771      	219.31036      	219.44098      	219.41696      	219.36998      	219.41203      	219.40933      	219.37408      	219.35284      	219.37361      	219.36955      	219.36034      	
219.25478      	219.25954      	219.26271      	219.25186      	219.24408      	219.22911      	219.24463      	219.24696      	219.24742      	219.24501      	219.22487      	219.2361       	219.2229       	219.23077      	219.207        	219.20241      	219.2136       	219.2254       	219.21135      	219.22029      	219.23756      	219.23099      	219.21408      	219.2302       	219.17773      	219.1764       	218.94897      	219.05971      	219.16669      	219.16667      	219.14609      	219.1382       	219.15721      	219.17958      	219.1238       	219.1399       	219.1447       	219.1848       	219.16537      	219.15594      	219.17773      	219.1456       	219.16397      	219.2147       	219.18387      	219.21048      	219.16371      	219.18405      	219.18735      	219.17258      	219.18114      	219.18149      	219.19685      	219.13925      	219.15324      	219.14691      	219.18497      	219.30165      	219.23096      	219.24951      	219.23918      	219.23787      	219.23152      	219.22208      	219.238        	219.23259      	219.23456      	219.21732      	219.23534      	219.24983      	219.25784      	219.24138      	219.24089      	219.25815      	219.20041      	219.22446      	219.22531      	219.1987       	219.2182       	219.21695      	219.23256      	219.23831      	219.24083      	219.24779      	219.2236       	219.24437      	219.23294      	219.13881      	218.97594      	219.13924      	219.19424      	219.18639      	219.18837      	219.19629      	219.18219      	219.19612      	219.20172      	219.18185      	219.19458      	219.17447      	
219.94505      	219.9636       	219.93365      	219.93465      	219.98323      	219.98625      	219.93431      	219.9114       	219.90659      	219.87712      	219.89703      	219.87148      	219.86702      	219.8605       	219.89459      	219.88809      	219.88632      	219.8737       	219.86295      	219.83768      	219.81949      	219.82555      	219.83482      	219.8107       	219.81055      	219.7741       	219.58649      	219.66954      	219.74838      	219.74384      	219.71017      	219.71857      	219.74724      	219.71544      	219.74701      	219.70505      	219.6819       	219.68788      	219.65807      	219.66928      	219.67244      	219.66708      	219.63835      	219.66261      	219.63107      	219.66673      	219.62381      	219.62564      	219.59837      	219.63403      	219.6244       	219.59572      	219.58409      	219.59103      	219.57741      	219.58258      	219.59274      	219.67633      	219.61264      	219.60345      	219.62384      	219.59816      	219.60048      	219.58382      	219.52832      	219.58041      	219.56137      	219.58455      	219.58575      	219.5549       	219.54507      	219.54604      	219.58626      	219.55313      	219.54892      	219.5201       	219.5286       	219.51295      	219.48103      	219.53099      	219.51202      	219.48192      	219.50189      	219.49652      	219.5287       	219.48201      	219.49161      	219.48985      	219.27846      	219.41087      	219.45135      	219.4098       	219.43137      	219.40036      	219.3868       	219.37834      	219.37013      	219.39268      	219.39062      	219.41504      	
221.11864      	221.10345      	221.1039       	221.08823      	221.12695      	221.08751      	221.0997       	221.0635       	221.08339      	221.05673      	221.0499       	221.03168      	221.04262      	221.02452      	221.06065      	221.05592      	221.05313      	221.0203       	221.02556      	220.99384      	220.97192      	220.97035      	220.96007      	220.93408      	220.97238      	220.9427       	220.73709      	220.7705       	220.87997      	220.9275       	220.87692      	220.89957      	220.89322      	220.90207      	220.8885       	220.87418      	220.89244      	220.89938      	220.88309      	220.84213      	220.84177      	220.86293      	220.84525      	220.87534      	220.865        	220.8628       	220.89769      	220.88786      	220.84413      	220.8444       	220.82323      	220.84703      	220.83904      	220.79533      	220.8091       	220.79189      	220.83522      	220.83586      	220.90627      	220.82585      	220.80301      	220.85349      	220.81624      	220.79617      	220.7921       	220.77745      	220.7727       	220.76785      	220.79182      	220.75684      	220.7567       	220.74843      	220.70575      	220.7614       	220.72551      	220.75247      	220.72101      	220.71593      	220.70688      	220.72415      	220.69539      	220.63908      	220.69928      	220.69852      	220.65413      	220.65211      	220.6827       	220.5489       	220.3843       	220.51962      	220.61253      	220.58693      	220.56847      	220.5892       	220.59052      	220.58122      	220.58148      	220.58246      	220.58192      	220.58301      	
221.06258      	221.05542      	221.06323      	221.07355      	221.04782      	221.08792      	221.10292      	221.12793      	221.15897      	221.10973      	221.1185       	221.10745      	221.1039       	221.13268      	221.1032       	221.1122       	221.11035      	221.13759      	221.14822      	221.09288      	221.1761       	221.18622      	221.15636      	221.16806      	221.14862      	221.11916      	220.90892      	221.01414      	221.12035      	221.11736      	221.14062      	221.13104      	221.11412      	221.1152       	221.14761      	221.19789      	221.13815      	221.1708       	221.17311      	221.15486      	221.12436      	221.1491       	221.168        	221.18959      	221.18858      	221.1706       	221.19058      	221.20987      	221.21625      	221.21353      	221.19211      	221.18073      	221.20741      	221.21596      	221.22415      	221.19057      	221.19803      	221.27351      	221.26175      	221.23012      	221.22354      	221.2327       	221.24944      	221.23659      	221.24837      	221.23438      	221.2352       	221.24602      	221.23448      	221.24098      	221.23993      	221.30336      	221.29965      	221.20963      	221.25179      	221.2356       	221.22241      	221.2482       	221.21857      	221.21597      	221.22272      	221.238        	221.23656      	221.23471      	221.25311      	221.22714      	221.2783       	221.15643      	220.97691      	221.13028      	221.19818      	221.19498      	221.21498      	221.24393      	221.22202      	221.18369      	221.19913      	221.19328      	221.21216      	221.18927      	
220.50552      	220.49481      	220.50987      	220.49962      	220.48431      	220.49821      	220.49538      	220.49072      	220.51483      	220.51369      	220.5202       	220.54742      	220.5264       	220.53076      	220.53925      	220.55183      	220.54924      	220.54848      	220.53957      	220.53317      	220.55023      	220.53307      	220.55762      	220.54369      	220.57307      	220.534        	220.28578      	220.42941      	220.53491      	220.53526      	220.51193      	220.52107      	220.5451       	220.53453      	220.54576      	220.5582       	220.55515      	220.54288      	220.54962      	220.57178      	220.58464      	220.55444      	220.54982      	220.51675      	220.5718       	220.57741      	220.56895      	220.53638      	220.54832      	220.56412      	220.5633       	220.54831      	220.56424      	220.53352      	220.57959      	220.5482       	220.59245      	220.68367      	220.70947      	220.60938      	220.62547      	220.6498       	220.63948      	220.63744      	220.64366      	220.60954      	220.62595      	220.62132      	220.63638      	220.5648       	220.61081      	220.63387      	220.6293       	220.57045      	220.60196      	220.59082      	220.59091      	220.57835      	220.5652       	220.61311      	220.60025      	220.60965      	220.60867      	220.61328      	220.61766      	220.65022      	220.65186      	220.57591      	220.37106      	220.45782      	220.5976       	220.61607      	220.61565      	220.62086      	220.6225       	220.63593      	220.65291      	220.64998      	220.64798      	220.6399       	
220.58391      	220.6046       	220.62117      	220.57294      	220.617        	220.62338      	220.60562      	220.59225      	220.55045      	220.57379      	220.56625      	220.57042      	220.56764      	220.57437      	220.56053      	220.56693      	220.53044      	220.57791      	220.55028      	220.52626      	220.53215      	220.49832      	220.48256      	220.50171      	220.50627      	220.49757      	220.28069      	220.38377      	220.4963       	220.46004      	220.47401      	220.45982      	220.47694      	220.47119      	220.4584       	220.48361      	220.47673      	220.48215      	220.4829       	220.4781       	220.46205      	220.47346      	220.48193      	220.47191      	220.48532      	220.48215      	220.47386      	220.46452      	220.48828      	220.47682      	220.50925      	220.49957      	220.48355      	220.50398      	220.3967       	220.43529      	220.47224      	220.5512       	220.55467      	220.48567      	220.46725      	220.45003      	220.44151      	220.4182       	220.42581      	220.40814      	220.39478      	220.39209      	220.41693      	220.39081      	220.3982       	220.38515      	220.34856      	220.38141      	220.37694      	220.43382      	220.39886      	220.35457      	220.3366       	220.34254      	220.37727      	220.31464      	220.34894      	220.36597      	220.31699      	220.30898      	220.31325      	220.33032      	220.12134      	220.17154      	220.27588      	220.26897      	220.28947      	220.30252      	220.28009      	220.28705      	220.30168      	220.31258      	220.31021      	220.30775      	
220.92969      	220.91518      	220.91498      	220.91406      	220.92847      	220.90866      	220.9061       	220.9226       	220.8959       	220.91417      	220.93764      	220.9217       	220.94644      	220.90958      	220.93996      	220.88678      	220.9048       	220.87975      	220.88345      	220.92543      	220.87381      	220.91365      	220.89845      	220.85995      	220.89125      	220.8675       	220.6598       	220.7266       	220.8764       	220.88339      	220.90216      	220.85368      	220.88512      	220.90756      	220.85532      	220.8589       	220.84451      	220.8556       	220.84679      	220.85175      	220.82104      	220.84277      	220.80165      	220.80211      	220.81477      	220.80803      	220.86078      	220.89915      	220.91441      	220.87733      	220.90964      	220.91727      	220.86346      	220.87445      	220.87405      	220.87479      	220.88748      	220.95215      	221.01335      	220.86623      	220.86366      	220.85965      	220.86247      	220.8788       	220.8422       	220.86171      	220.84964      	220.84291      	220.8777       	220.85555      	220.84544      	220.82292      	220.8297       	220.81662      	220.83002      	220.84172      	220.80873      	220.79633      	220.79848      	220.80429      	220.79593      	220.83221      	220.83096      	220.80354      	220.78595      	220.78233      	220.82468      	220.82349      	220.57932      	220.67107      	220.77455      	220.75146      	220.78514      	220.76424      	220.76239      	220.76434      	220.77498      	220.77588      	220.77248      	220.76335      	
220.45229      	220.48357      	220.49152      	220.48427      	220.46263      	220.47862      	220.4733       	220.45978      	220.47708      	220.49437      	220.50893      	220.4887       	220.51266      	220.49513      	220.50412      	220.51126      	220.50722      	220.52882      	220.53069      	220.54321      	220.52548      	220.56085      	220.55199      	220.52742      	220.59703      	220.5768       	220.37703      	220.469        	220.56242      	220.58249      	220.56187      	220.57059      	220.55544      	220.56357      	220.56406      	220.53696      	220.56934      	220.55852      	220.5372       	220.58661      	220.5515       	220.567        	220.58226      	220.59642      	220.60312      	220.59161      	220.58034      	220.61198      	220.58815      	220.5852       	220.59848      	220.63165      	220.59352      	220.60767      	220.59065      	220.59254      	220.61635      	220.75082      	220.72322      	220.67458      	220.72134      	220.68155      	220.65584      	220.64934      	220.61148      	220.64833      	220.65627      	220.66832      	220.65005      	220.64096      	220.66968      	220.65942      	220.65701      	220.66023      	220.64699      	220.67267      	220.7081       	220.7364       	220.71964      	220.6904       	220.7168       	220.72604      	220.74728      	220.75073      	220.7408       	220.71404      	220.71107      	220.72665      	220.50174      	220.56468      	220.73796      	220.76904      	220.75119      	220.74403      	220.74553      	220.78195      	220.74904      	220.71947      	220.71274      	220.72247      	
219.63791      	219.7124       	219.66483      	219.67084      	219.72792      	219.72594      	219.66374      	219.69263      	219.71371      	219.68678      	219.70607      	219.7233       	219.74129      	219.70238      	219.68707      	219.70833      	219.70566      	219.72112      	219.71117      	219.71194      	219.69382      	219.69612      	219.67079      	219.7066       	219.74318      	219.6509       	219.52487      	219.5988       	219.62868      	219.62451      	219.63744      	219.67923      	219.68027      	219.72667      	219.68161      	219.65741      	219.66566      	219.66481      	219.60213      	219.65593      	219.62987      	219.65096      	219.66602      	219.6753       	219.64276      	219.61127      	219.72395      	219.68558      	219.68987      	219.73416      	219.76324      	219.75893      	219.78275      	219.74464      	219.77264      	219.78273      	219.73918      	219.74069      	219.62744      	219.72044      	219.75137      	219.74081      	219.75108      	219.771        	219.77023      	219.74927      	219.8154       	219.78685      	219.76321      	219.74593      	219.73709      	219.75066      	219.79437      	219.83682      	219.8737       	219.8817       	219.87994      	219.88199      	219.90976      	219.90976      	219.933        	219.94606      	219.88382      	219.87654      	219.85995      	219.9328       	219.9012       	219.81348      	219.69876      	219.74088      	219.90587      	219.82317      	219.89198      	219.95238      	219.90123      	219.84813      	219.87067      	219.93126      	219.9419       	219.96223      	
219.73566      	219.70323      	219.70003      	219.68611      	219.70856      	219.68434      	219.69252      	219.6959       	219.7003       	219.70563      	219.73703      	219.73688      	219.71722      	219.73871      	219.6854       	219.7079       	219.70749      	219.70424      	219.70624      	219.71826      	219.70267      	219.65721      	219.68631      	219.71321      	219.73444      	219.71071      	219.46574      	219.59769      	219.74414      	219.64772      	219.63951      	219.65224      	219.65854      	219.66347      	219.67732      	219.67252      	219.6522       	219.68074      	219.6635       	219.65274      	219.69089      	219.67679      	219.70558      	219.67377      	219.69888      	219.69382      	219.67722      	219.6889       	219.69579      	219.67856      	219.66888      	219.66983      	219.67677      	219.65845      	219.70567      	219.70053      	219.67694      	219.79047      	219.80504      	219.72015      	219.73778      	219.71774      	219.7547       	219.7432       	219.7247       	219.71208      	219.70947      	219.71825      	219.71681      	219.70139      	219.71051      	219.713        	219.69664      	219.68007      	219.68944      	219.69734      	219.69412      	219.73126      	219.72122      	219.73445      	219.71886      	219.74083      	219.6994       	219.72977      	219.71404      	219.69638      	219.655        	219.66675      	219.4899       	219.51782      	219.6445       	219.64903      	219.63542      	219.64551      	219.6499       	219.63844      	219.68663      	219.66331      	219.64511      	219.67708      	
219.937        	219.92654      	219.91252      	219.92865      	219.94817      	219.90276      	219.93678      	219.93216      	219.91771      	219.92732      	219.92458      	219.90456      	219.91666      	219.8646       	219.88794      	219.92311      	219.90753      	219.92537      	219.88783      	219.86314      	219.87857      	219.91588      	219.89586      	219.83649      	219.86263      	219.87628      	219.67548      	219.72974      	219.86378      	219.84636      	219.87476      	219.851        	219.87273      	219.86423      	219.85623      	219.80243      	219.81293      	219.78995      	219.805        	219.82472      	219.7993       	219.82404      	219.78906      	219.82083      	219.78465      	219.77411      	219.79092      	219.7672       	219.81293      	219.77824      	219.79338      	219.80666      	219.81233      	219.82523      	219.75838      	219.78592      	219.79742      	219.78307      	219.67111      	219.81586      	219.83395      	219.84946      	219.83534      	219.8317       	219.86974      	219.84396      	219.83255      	219.8425       	219.82457      	219.85432      	219.8417       	219.82054      	219.79669      	219.83603      	219.82253      	219.81277      	219.77444      	219.79869      	219.80472      	219.79819      	219.75725      	219.8268       	219.76659      	219.7682       	219.77922      	219.7903       	219.78981      	219.78972      	219.52467      	219.637        	219.7971       	219.77374      	219.79247      	219.74733      	219.74731      	219.76474      	219.76741      	219.77927      	219.77728      	219.77045      	
220.11581      	220.05795      	220.06686      	220.09491      	220.09218      	220.10788      	220.0943       	220.08438      	220.1451       	220.14261      	220.09093      	220.08194      	220.08102      	220.07278      	220.05093      	220.0878       	220.069        	220.0696       	220.06644      	220.06879      	220.06972      	220.04446      	220.04306      	220.0351       	220.07457      	220.02107      	219.85182      	219.93898      	220.0301       	220.06673      	220.0371       	220.02644      	220.03125      	220.06845      	220.07042      	220.05661      	220.06062      	220.07016      	220.05453      	220.06421      	220.06793      	220.06105      	220.07155      	220.05685      	220.05005      	220.06078      	220.03491      	220.05136      	220.06801      	220.02246      	220.04893      	220.02635      	220.02914      	220.06934      	220.05956      	220.03107      	220.03467      	220.10791      	220.15077      	220.05875      	220.101        	220.04709      	220.08057      	220.05672      	220.05963      	220.06453      	220.04205      	220.05228      	220.04178      	220.02487      	220.02962      	220.02086      	220.03728      	220.03908      	220.03368      	220.00787      	220.02718      	220.01764      	220.03282      	220.02963      	220.02911      	220.02347      	220.03606      	220.00925      	220.05829      	220.06248      	220.06468      	220.02225      	219.83778      	219.91405      	220.03143      	220.0574       	220.04784      	220.06784      	220.03146      	219.99657      	219.96463      	219.95477      	219.97981      	219.94537      	
220.1151       	220.13078      	220.14491      	220.13629      	220.14592      	220.17526      	220.16173      	220.16722      	220.16356      	220.12985      	220.15755      	220.1892       	220.16547      	220.18068      	220.1669       	220.1536       	220.15912      	220.17284      	220.17511      	220.15822      	220.15164      	220.13126      	220.14874      	220.17584      	220.16978      	220.16869      	219.95258      	220.02518      	220.14252      	220.13356      	220.1039       	220.14053      	220.15855      	220.09871      	220.12155      	220.12598      	220.12215      	220.13199      	220.11526      	220.13338      	220.13596      	220.12344      	220.12982      	220.12938      	220.16518      	220.12265      	220.13225      	220.14754      	220.13264      	220.1451       	220.12375      	220.1336       	220.12402      	220.12004      	220.11862      	220.10345      	220.1199       	220.14647      	220.08382      	220.1915       	220.18678      	220.19635      	220.19293      	220.16429      	220.1684       	220.19473      	220.17828      	220.19449      	220.19843      	220.18724      	220.2073       	220.18668      	220.17848      	220.18138      	220.19505      	220.25139      	220.20334      	220.24677      	220.23978      	220.18854      	220.17912      	220.17575      	220.16609      	220.19208      	220.17169      	220.20703      	220.18964      	220.17166      	219.95297      	219.96799      	220.14833      	220.16447      	220.149        	220.13243      	220.13605      	220.1312       	220.13145      	220.12881      	220.11325      	220.1161       	
219.89494      	219.91104      	219.93335      	219.91928      	219.91588      	219.88062      	219.90106      	219.9308       	219.90967      	219.91943      	219.93625      	219.92369      	219.93349      	219.95058      	219.91106      	219.92789      	219.93457      	219.91042      	219.93793      	219.95975      	219.99463      	219.94043      	219.96736      	219.95955      	219.98831      	219.94606      	219.73654      	219.80394      	219.96686      	219.9134       	219.9632       	220.0075       	219.96906      	219.92522      	219.94437      	219.94821      	219.93495      	219.94247      	219.96461      	219.9664       	220.03429      	220.00638      	219.99002      	219.96121      	219.95444      	219.99843      	219.98082      	219.96819      	219.95914      	219.95853      	219.98088      	219.99992      	220.01413      	219.9559       	219.97426      	220.00803      	219.99341      	219.96034      	220.05234      	219.97057      	219.96916      	219.96266      	219.97516      	219.98193      	219.97183      	219.92229      	219.9454       	219.95264      	219.96149      	219.9922       	220.01115      	220.0188       	219.95947      	220.00578      	219.99892      	219.99066      	219.99823      	219.9918       	219.97966      	220.01552      	220.01422      	219.98656      	219.99911      	219.97194      	219.99812      	220.0139       	219.98671      	220.0176       	219.76382      	219.78929      	219.96396      	219.98372      	219.98863      	220.05504      	220.0227       	220.02182      	220.016        	220.0086       	220.01352      	220.01051      	
219.93822      	219.96722      	219.95996      	219.99367      	219.99982      	219.96396      	219.97003      	219.92212      	219.92674      	219.90904      	219.91217      	219.92184      	219.9366       	219.94914      	219.88576      	219.87755      	219.90245      	219.92351      	219.91267      	219.89722      	219.87671      	219.89337      	219.88007      	219.81943      	219.87277      	219.90114      	219.73212      	219.73294      	219.84596      	219.83218      	219.83604      	219.81473      	219.79102      	219.82611      	219.84236      	219.82416      	219.8284       	219.8154       	219.83438      	219.81786      	219.79076      	219.79085      	219.80151      	219.81244      	219.78645      	219.83925      	219.80013      	219.7951       	219.80919      	219.81052      	219.80258      	219.83209      	219.77557      	219.80197      	219.8135       	219.81021      	219.78293      	219.9046       	219.90016      	219.82108      	219.81598      	219.8194       	219.81288      	219.80984      	219.79636      	219.82303      	219.81654      	219.80101      	219.82701      	219.80783      	219.79344      	219.78036      	219.81996      	219.82895      	219.782        	219.7839       	219.78575      	219.79443      	219.84474      	219.87305      	219.8473       	219.84149      	219.84042      	219.8597       	219.85207      	219.8305       	219.83691      	219.84064      	219.62543      	219.59435      	219.82008      	219.79465      	219.7857       	219.78375      	219.78244      	219.78702      	219.7757       	219.74911      	219.74966      	219.74294      	
220.65065      	220.65706      	220.652        	220.65665      	220.64665      	220.63377      	220.64777      	220.6487       	220.60004      	220.6196       	220.64557      	220.64337      	220.6657       	220.60294      	220.56659      	220.58128      	220.61974      	220.63322      	220.5818       	220.58171      	220.57045      	220.59897      	220.56802      	220.56935      	220.58893      	220.56398      	220.32951      	220.47739      	220.53523      	220.5165       	220.55576      	220.50304      	220.52333      	220.51236      	220.543        	220.52751      	220.46405      	220.50568      	220.49031      	220.48926      	220.45543      	220.46623      	220.48347      	220.4562       	220.47061      	220.49094      	220.43945      	220.40765      	220.43709      	220.41759      	220.40918      	220.4156       	220.40916      	220.43652      	220.38783      	220.43555      	220.42328      	220.40439      	220.52539      	220.41335      	220.39745      	220.39223      	220.37819      	220.39598      	220.38211      	220.36769      	220.35701      	220.34052      	220.2981       	220.31885      	220.3343       	220.29776      	220.35423      	220.38724      	220.36205      	220.31215      	220.30927      	220.31699      	220.32478      	220.28566      	220.27483      	220.27098      	220.27292      	220.28456      	220.30865      	220.27873      	220.2737       	220.27989      	220.1887       	220.04059      	220.20042      	220.22028      	220.19466      	220.16472      	220.15182      	220.14998      	220.18979      	220.17458      	220.16905      	220.19344      	
221.22768      	221.24391      	221.2719       	221.21771      	221.19785      	221.22336      	221.23734      	221.24525      	221.19981      	221.19943      	221.22208      	221.23134      	221.2112       	221.1888       	221.20883      	221.20654      	221.21713      	221.18008      	221.19301      	221.18626      	221.16937      	221.19559      	221.20323      	221.17194      	221.20535      	221.19655      	220.91574      	221.04478      	221.2347       	221.2272       	221.21735      	221.17337      	221.18536      	221.18668      	221.1795       	221.20184      	221.16615      	221.17603      	221.17767      	221.21776      	221.21599      	221.18541      	221.16891      	221.18625      	221.13849      	221.18619      	221.16689      	221.17384      	221.13916      	221.16681      	221.18703      	221.15553      	221.1664       	221.1994       	221.19873      	221.17966      	221.14111      	221.20383      	221.31204      	221.17506      	221.14777      	221.1644       	221.19998      	221.16893      	221.17966      	221.17961      	221.14894      	221.16551      	221.14435      	221.1767       	221.14786      	221.1627       	221.159        	221.16367      	221.16476      	221.13411      	221.17815      	221.13824      	221.13351      	221.14566      	221.16441      	221.12125      	221.10728      	221.11691      	221.08977      	221.12616      	221.11832      	221.11269      	220.92905      	220.85585      	221.05447      	221.06966      	221.05093      	221.0634       	221.02312      	221.02863      	221.02724      	221.05885      	221.04436      	221.05284      	
220.85759      	220.8545       	220.85886      	220.8458       	220.83817      	220.90897      	220.89415      	220.83604      	220.90701      	220.88597      	220.8768       	220.90129      	220.85712      	220.89452      	220.90907      	220.85832      	220.87419      	220.91115      	220.93407      	220.91917      	220.95921      	220.9655       	220.96507      	220.98146      	220.94058      	220.94138      	220.7412       	220.84464      	220.9576       	220.91888      	220.9114       	220.96841      	220.96535      	220.96713      	220.98148      	220.98141      	220.98013      	220.97507      	220.9787       	220.99474      	221.02824      	220.96777      	220.99794      	221.01686      	220.94742      	220.98828      	220.98486      	221.02016      	221.04417      	220.97884      	221.01175      	221.00258      	221.01224      	221.04126      	221.02396      	221.07643      	221.06064      	221.13129      	221.20567      	221.08023      	221.10373      	221.10432      	221.12022      	221.1445       	221.13368      	221.1318       	221.13797      	221.13368      	221.16403      	221.18625      	221.16037      	221.15916      	221.16005      	221.16808      	221.16634      	221.14383      	221.14244      	221.1734       	221.15877      	221.17355      	221.1824       	221.14687      	221.17038      	221.16953      	221.1722       	221.18433      	221.2059       	221.18546      	221.0029       	221.03558      	221.18573      	221.2011       	221.17982      	221.18335      	221.15999      	221.16293      	221.14857      	221.16197      	221.16682      	221.1582       	
220.30444      	220.31624      	220.34586      	220.3846       	220.37392      	220.3856       	220.38934      	220.4055       	220.36342      	220.35501      	220.34499      	220.3404       	220.34145      	220.33905      	220.3645       	220.37729      	220.355        	220.37234      	220.39087      	220.39655      	220.38689      	220.3557       	220.34818      	220.36989      	220.371        	220.37018      	220.13174      	220.18889      	220.38055      	220.34799      	220.36581      	220.34497      	220.36423      	220.34496      	220.34549      	220.36905      	220.35368      	220.37395      	220.36098      	220.37682      	220.3375       	220.39035      	220.39081      	220.33105      	220.33792      	220.31796      	220.33153      	220.32887      	220.31076      	220.33939      	220.33693      	220.3177       	220.29625      	220.32391      	220.33128      	220.3244       	220.3177       	220.40182      	220.37741      	220.3993       	220.36237      	220.38219      	220.374        	220.34929      	220.39453      	220.37222      	220.36722      	220.35902      	220.34435      	220.36627      	220.40065      	220.35484      	220.40292      	220.4194       	220.40634      	220.42514      	220.43254      	220.45042      	220.42627      	220.44382      	220.42929      	220.46182      	220.43509      	220.38705      	220.42259      	220.35968      	220.41422      	220.40332      	220.20134      	220.2107       	220.38284      	220.40628      	220.37901      	220.40063      	220.39607      	220.39401      	220.40614      	220.39215      	220.412        	220.39226      	
220.3176       	220.30038      	220.29225      	220.29572      	220.3073       	220.2949       	220.29323      	220.31296      	220.29662      	220.27032      	220.29315      	220.29642      	220.3198       	220.28781      	220.32552      	220.32355      	220.33112      	220.34218      	220.3221       	220.34671      	220.31982      	220.3244       	220.3629       	220.34593      	220.36188      	220.3096       	220.14568      	220.15315      	220.29158      	220.30995      	220.24652      	220.30077      	220.32147      	220.3288       	220.3098       	220.33504      	220.31519      	220.31342      	220.30492      	220.31151      	220.29823      	220.26022      	220.2263       	220.22282      	220.2724       	220.24219      	220.23518      	220.2641       	220.286        	220.32161      	220.28256      	220.26865      	220.26361      	220.25902      	220.30771      	220.27394      	220.25616      	220.34698      	220.4343       	220.3196       	220.28676      	220.30779      	220.30739      	220.27448      	220.26332      	220.31567      	220.30252      	220.27402      	220.27557      	220.29915      	220.3281       	220.3401       	220.28334      	220.29501      	220.32724      	220.33795      	220.2822       	220.31168      	220.30759      	220.29199      	220.2971       	220.29144      	220.28519      	220.29251      	220.30382      	220.26622      	220.29318      	220.28732      	220.06125      	220.11241      	220.21289      	220.24684      	220.24673      	220.23761      	220.21764      	220.16869      	220.20921      	220.26799      	220.27663      	220.24742      	
220.60715      	220.56662      	220.59082      	220.58846      	220.61507      	220.60718      	220.60297      	220.5952       	220.58238      	220.59897      	220.56723      	220.57648      	220.55396      	220.59698      	220.57916      	220.53696      	220.53261      	220.55643      	220.51468      	220.53343      	220.55862      	220.54515      	220.52612      	220.54874      	220.5148       	220.58556      	220.42154      	220.30687      	220.50436      	220.53168      	220.53314      	220.52058      	220.50954      	220.5201       	220.54112      	220.54868      	220.51712      	220.51407      	220.5386       	220.51442      	220.50041      	220.546        	220.4911       	220.50058      	220.52834      	220.55981      	220.501        	220.49452      	220.52927      	220.49533      	220.5053       	220.53165      	220.57625      	220.50128      	220.46884      	220.50967      	220.48134      	220.52213      	220.48631      	220.54233      	220.527        	220.5053       	220.55974      	220.50873      	220.50262      	220.52052      	220.50505      	220.5258       	220.51642      	220.54637      	220.4946       	220.46425      	220.47746      	220.51091      	220.46658      	220.4997       	220.48248      	220.51434      	220.48253      	220.46686      	220.47939      	220.48573      	220.48772      	220.47159      	220.49161      	220.48277      	220.44095      	220.49863      	220.37769      	220.23709      	220.21509      	220.23616      	220.22438      	220.32838      	220.26068      	220.28777      	220.30023      	220.37492      	220.41054      	220.31104      	
220.97055      	220.95827      	221.00366      	221.01213      	220.98244      	220.97162      	221.02562      	220.98026      	220.94644      	220.97813      	220.93524      	220.96117      	220.93376      	220.94936      	220.9766       	220.95328      	220.96417      	220.96167      	220.95605      	220.93457      	220.97354      	220.96031      	220.97581      	220.97005      	220.93465      	220.9553       	220.85532      	220.66806      	220.80063      	220.83588      	220.72249      	220.71272      	220.73524      	220.72142      	220.79826      	220.83727      	220.75789      	220.81427      	220.80592      	220.73503      	220.76712      	220.78961      	220.75267      	220.695        	220.74313      	220.73532      	220.70651      	220.71661      	220.72333      	220.72699      	220.6972       	220.72104      	220.71484      	220.71051      	220.67154      	220.73569      	220.80974      	220.68864      	220.85924      	220.92976      	220.93141      	220.97502      	220.92686      	220.96606      	220.95358      	220.97528      	220.9894       	220.98146      	220.95613      	220.97418      	220.95865      	220.96307      	220.96864      	220.93465      	220.96588      	220.98898      	220.96901      	220.98192      	220.97917      	220.9752       	220.9496       	220.93408      	220.96915      	220.95839      	220.99928      	221.00534      	220.98065      	220.99086      	220.96219      	220.97063      	220.9538       	220.93391      	220.94704      	220.79762      	220.71725      	220.7671       	220.79128      	220.78864      	220.86456      	220.96405      	
220.94049      	220.95085      	220.9341       	220.87978      	220.90775      	220.89676      	220.89784      	220.93173      	220.90582      	220.91837      	220.90573      	220.88704      	220.92429      	220.87856      	220.8766       	220.9118       	220.87451      	220.9099       	220.89574      	220.9135       	220.89548      	220.90111      	220.90395      	220.9098       	220.93893      	220.87996      	220.90492      	220.89404      	220.88794      	220.9317       	220.91545      	220.92032      	220.95338      	220.89432      	220.91945      	220.92131      	220.89972      	220.9653       	220.92679      	220.91617      	220.87566      	220.87067      	220.87196      	220.8934       	220.87534      	220.89096      	220.86873      	220.88182      	220.88821      	220.89413      	220.8992       	220.89005      	220.89642      	220.88898      	220.86647      	220.87389      	220.85281      	220.8492       	220.87767      	220.9169       	220.87971      	220.88133      	220.88654      	220.89297      	220.89871      	220.89645      	220.89891      	220.90901      	220.90178      	220.87883      	220.91977      	220.87859      	220.89528      	220.92033      	220.89574      	220.89932      	220.86955      	220.89821      	220.88023      	220.91335      	220.92268      	220.89194      	220.89934      	220.91884      	220.9006       	220.89413      	220.90005      	220.91364      	220.84286      	220.91068      	220.90114      	220.86923      	220.89041      	220.8788       	220.82811      	220.71184      	220.8326       	220.85927      	220.87355      	220.91731      	
220.55797      	220.58656      	220.5926       	220.59964      	220.61844      	220.57181      	220.61858      	220.6196       	220.60042      	220.59161      	220.67125      	220.63087      	220.6422       	220.62134      	220.58217      	220.64363      	220.64438      	220.59769      	220.6362       	220.63794      	220.61774      	220.64551      	220.6431       	220.62787      	220.65106      	220.65111      	220.65347      	220.65578      	220.6407       	220.67299      	220.7162       	220.7396       	220.69766      	220.73378      	220.70758      	220.65631      	220.69086      	220.6879       	220.70273      	220.67377      	220.69398      	220.70573      	220.73093      	220.73332      	220.70685      	220.72745      	220.73387      	220.71332      	220.75246      	220.72891      	220.72833      	220.76683      	220.7158       	220.7366       	220.74782      	220.73155      	220.76361      	220.75449      	220.77158      	220.76163      	220.75462      	220.76457      	220.76546      	220.79742      	220.77026      	220.77505      	220.77248      	220.75624      	220.76744      	220.7771       	220.77678      	220.79076      	220.81288      	220.77289      	220.76321      	220.76291      	220.79926      	220.80281      	220.8174       	220.8008       	220.8439       	220.83234      	220.83144      	220.8667       	220.84918      	220.85463      	220.84563      	220.83844      	220.90399      	220.88443      	220.83739      	220.84406      	220.8494       	220.85255      	220.84578      	220.85599      	220.84616      	220.84293      	220.84189      	220.85327      	
220.17717      	220.18886      	220.1809       	220.17944      	220.20703      	220.19545      	220.17897      	220.21434      	220.22438      	220.23105      	220.22418      	220.22356      	220.18283      	220.2133       	220.17775      	220.19         	220.22377      	220.18294      	220.19391      	220.20619      	220.18195      	220.1948       	220.186        	220.208        	220.20204      	220.22751      	220.21922      	220.21954      	220.2356       	220.2193       	220.21931      	220.22777      	220.20425      	220.22101      	220.22186      	220.23782      	220.20303      	220.20183      	220.22276      	220.22377      	220.2291       	220.22194      	220.21631      	220.22258      	220.21924      	220.19737      	220.21605      	220.21628      	220.20868      	220.24017      	220.25482      	220.23668      	220.25719      	220.25407      	220.2797       	220.25919      	220.27284      	220.22765      	220.25252      	220.23114      	220.21793      	220.22963      	220.2892       	220.26822      	220.24493      	220.26227      	220.25156      	220.2841       	220.26076      	220.26535      	220.27737      	220.30698      	220.30724      	220.2794       	220.29218      	220.28815      	220.26402      	220.296        	220.27206      	220.28001      	220.30692      	220.2847       	220.27916      	220.32469      	220.33392      	220.3048       	220.31706      	220.30199      	220.29965      	220.29999      	220.28258      	220.2665       	220.33397      	220.34958      	220.32643      	220.3474       	220.33618      	220.3591       	220.34146      	220.34735      	
219.8387       	219.85715      	219.88425      	219.85107      	219.84073      	219.87186      	219.8609       	219.86966      	219.87068      	219.87308      	219.88202      	219.87616      	219.88145      	219.87737      	219.86215      	219.86801      	219.86913      	219.83813      	219.84723      	219.85886      	219.89171      	219.89003      	219.9021       	219.87053      	219.88795      	219.88007      	219.85687      	219.81693      	219.91193      	219.85545      	219.8214       	219.86842      	219.83188      	219.88445      	219.87117      	219.85904      	219.87741      	219.87988      	219.87181      	219.85284      	219.88976      	219.89528      	219.85414      	219.86241      	219.84804      	219.85687      	219.90683      	219.84169      	219.87354      	219.87775      	219.8703       	219.91083      	219.8729       	219.8611       	219.90219      	219.88248      	219.89948      	219.89064      	219.89963      	219.88727      	219.88206      	219.87848      	219.89224      	219.88055      	219.88043      	219.87766      	219.87877      	219.91815      	219.88338      	219.9287       	219.92313      	219.91498      	219.9082       	219.91766      	219.95175      	219.9068       	219.91083      	219.89117      	219.87717      	219.91452      	219.92296      	219.9354       	219.91814      	219.91144      	219.92072      	219.91716      	219.91902      	219.91702      	219.87726      	219.9556       	219.92355      	219.96257      	219.95818      	219.93243      	219.92136      	219.9172       	219.92662      	219.92894      	219.93988      	219.92528      	
219.8259       	219.82219      	219.83307      	219.80563      	219.80013      	219.81107      	219.77089      	219.7839       	219.78177      	219.77379      	219.79158      	219.80544      	219.77086      	219.7897       	219.78262      	219.76115      	219.7762       	219.78673      	219.78954      	219.76115      	219.78612      	219.77228      	219.74823      	219.79744      	219.78714      	219.78517      	219.77045      	219.82472      	219.80801      	219.81252      	219.7771       	219.81528      	219.82272      	219.80803      	219.77414      	219.73923      	219.73683      	219.74075      	219.78743      	219.77441      	219.80493      	219.82487      	219.77344      	219.78558      	219.77585      	219.76376      	219.79347      	219.80989      	219.76505      	219.81747      	219.81699      	219.77274      	219.77362      	219.78783      	219.80081      	219.79706      	219.82034      	219.82042      	219.82608      	219.78653      	219.81647      	219.79994      	219.8152       	219.78769      	219.80638      	219.80319      	219.813        	219.82025      	219.80731      	219.80957      	219.83284      	219.81393      	219.80966      	219.79883      	219.82712      	219.80893      	219.82681      	219.82407      	219.82407      	219.81906      	219.82243      	219.83055      	219.82909      	219.82         	219.81567      	219.85257      	219.84752      	219.83391      	219.82681      	219.81996      	219.82771      	219.8391       	219.82901      	219.8209       	219.82584      	219.83952      	219.82664      	219.82372      	219.84093      	219.83926      	
219.52928      	219.53897      	219.52533      	219.51758      	219.51834      	219.531        	219.53815      	219.52304      	219.5596       	219.55975      	219.54929      	219.52716      	219.53781      	219.52121      	219.54988      	219.55322      	219.54909      	219.58096      	219.56577      	219.59995      	219.56622      	219.5643       	219.55988      	219.54591      	219.58179      	219.57024      	219.5691       	219.54059      	219.56413      	219.60359      	219.5899       	219.58795      	219.58128      	219.598        	219.54294      	219.5508       	219.54498      	219.56744      	219.57303      	219.5364       	219.56541      	219.5567       	219.57541      	219.56975      	219.57698      	219.5845       	219.59674      	219.62257      	219.57872      	219.598        	219.59457      	219.58981      	219.57617      	219.61061      	219.57584      	219.61305      	219.58665      	219.58298      	219.60623      	219.56715      	219.6197       	219.5784       	219.58887      	219.57843      	219.59244      	219.60228      	219.61925      	219.64339      	219.65494      	219.6023       	219.62437      	219.64114      	219.66235      	219.64178      	219.6722       	219.63292      	219.6691       	219.65189      	219.63063      	219.63687      	219.67552      	219.633        	219.62782      	219.67816      	219.66643      	219.68077      	219.68304      	219.6419       	219.68692      	219.6874       	219.69156      	219.70444      	219.72867      	219.75665      	219.71983      	219.71585      	219.70091      	219.70367      	219.70734      	219.68538      	
219.52916      	219.52539      	219.50179      	219.5038       	219.54468      	219.5157       	219.5023       	219.52505      	219.52184      	219.49625      	219.55118      	219.52711      	219.52327      	219.52078      	219.55276      	219.52109      	219.55275      	219.54588      	219.5239       	219.53065      	219.53052      	219.54385      	219.50192      	219.47844      	219.48186      	219.47981      	219.49504      	219.53386      	219.50694      	219.52846      	219.5327       	219.56027      	219.48242      	219.49603      	219.48648      	219.4595       	219.54698      	219.53302      	219.54562      	219.48624      	219.48715      	219.49307      	219.49835      	219.51164      	219.51016      	219.50694      	219.4872       	219.50026      	219.47731      	219.48647      	219.49396      	219.47989      	219.48695      	219.50534      	219.50174      	219.49327      	219.51373      	219.45775      	219.49852      	219.48158      	219.48227      	219.47818      	219.45158      	219.46591      	219.46674      	219.46638      	219.48874      	219.46536      	219.48074      	219.49059      	219.46574      	219.48993      	219.48416      	219.44574      	219.48186      	219.45703      	219.48915      	219.47816      	219.47144      	219.47476      	219.47266      	219.48878      	219.46597      	219.46101      	219.46718      	219.45604      	219.44562      	219.4716       	219.4576       	219.4556       	219.45312      	219.4621       	219.45247      	219.45331      	219.47917      	219.45255      	219.4529       	219.46422      	219.46129      	219.48549      	
219.69823      	219.70714      	219.68663      	219.70055      	219.69588      	219.69241      	219.70068      	219.69464      	219.70631      	219.6987       	219.67917      	219.71207      	219.7141       	219.74574      	219.71979      	219.704        	219.76115      	219.70277      	219.7109       	219.69212      	219.66734      	219.70294      	219.67584      	219.69417      	219.65866      	219.69514      	219.6705       	219.69235      	219.68578      	219.64618      	219.65477      	219.62552      	219.63274      	219.63988      	219.67128      	219.6395       	219.64404      	219.6621       	219.64114      	219.62286      	219.63112      	219.63303      	219.62198      	219.59213      	219.60353      	219.59846      	219.64505      	219.617        	219.5954       	219.61789      	219.58401      	219.6162       	219.5813       	219.55598      	219.5905       	219.58946      	219.57477      	219.59291      	219.603        	219.58803      	219.57716      	219.60858      	219.60423      	219.56578      	219.5814       	219.55739      	219.57574      	219.58432      	219.59244      	219.6237       	219.56305      	219.55322      	219.58879      	219.55745      	219.54091      	219.51434      	219.55273      	219.55629      	219.53867      	219.5276       	219.51923      	219.56134      	219.55011      	219.51141      	219.55933      	219.5481       	219.54056      	219.56964      	219.58464      	219.52309      	219.53337      	219.53018      	219.54541      	219.56981      	219.51149      	219.51645      	219.53163      	219.5196       	219.53426      	219.504        	
220.36906      	220.37714      	220.3583       	220.40454      	220.39078      	220.40384      	220.40103      	220.35658      	220.39423      	220.38467      	220.40091      	220.37692      	220.37177      	220.38422      	220.351        	220.35545      	220.33792      	220.36572      	220.34041      	220.34354      	220.32281      	220.31625      	220.31174      	220.28763      	220.31358      	220.33824      	220.31293      	220.33665      	220.31828      	220.30412      	220.2938       	220.27458      	220.25952      	220.26031      	220.3059       	220.24985      	220.2544       	220.23907      	220.24738      	220.23892      	220.21877      	220.23965      	220.18553      	220.18976      	220.18864      	220.20274      	220.19737      	220.1611       	220.18849      	220.16727      	220.16737      	220.17972      	220.18431      	220.15945      	220.17009      	220.1493       	220.13948      	220.11012      	220.09921      	220.14105      	220.13274      	220.12225      	220.10912      	220.08212      	220.1011       	220.06891      	220.09853      	220.08302      	220.05788      	220.08737      	220.05695      	220.06926      	220.06714      	220.05745      	220.05014      	220.091        	220.07216      	220.06024      	220.05374      	220.04845      	220.00961      	220.07852      	220.06186      	220.02115      	219.98314      	219.97333      	219.95718      	219.9955       	219.96338      	219.90617      	219.958        	219.90137      	219.92918      	219.9431       	219.90878      	219.92258      	219.9057       	219.88406      	219.89844      	219.88939      	
221.29144      	221.30743      	221.30898      	221.33464      	221.29933      	221.32005      	221.2898       	221.3362       	221.31308      	221.29059      	221.32086      	221.30592      	221.30453      	221.2949       	221.27536      	221.26071      	221.29524      	221.2718       	221.26381      	221.29808      	221.25049      	221.23395      	221.26389      	221.27682      	221.27853      	221.24393      	221.27652      	221.25233      	221.24327      	221.2696       	221.28394      	221.28331      	221.25049      	221.24902      	221.23062      	221.22412      	221.22688      	221.20343      	221.19144      	221.21436      	221.19395      	221.23106      	221.21426      	221.17511      	221.22136      	221.2097       	221.17351      	221.16237      	221.18137      	221.17375      	221.16933      	221.15941      	221.1691       	221.17041      	221.17996      	221.17244      	221.18463      	221.17657      	221.18134      	221.17784      	221.16476      	221.18457      	221.18137      	221.12363      	221.16815      	221.2088       	221.14719      	221.10907      	221.12518      	221.143        	221.11443      	221.1242       	221.10342      	221.06863      	221.09448      	221.09547      	221.09137      	221.10904      	221.06564      	221.06885      	221.0843       	221.06192      	221.06642      	221.0827       	221.06418      	221.04607      	221.06027      	221.05502      	221.0799       	221.07054      	221.0474       	221.07079      	221.06293      	221.04733      	220.99374      	221.02037      	221.01512      	221.04086      	221.00478      	221.04706      	
221.39868      	221.31575      	221.30087      	221.36661      	221.30968      	221.35783      	221.31322      	221.34796      	221.30666      	221.34866      	221.3339       	221.33835      	221.33273      	221.34027      	221.33212      	221.36482      	221.38216      	221.3815       	221.38438      	221.3633       	221.39435      	221.39183      	221.37134      	221.40956      	221.41537      	221.40526      	221.40224      	221.40358      	221.40715      	221.42627      	221.41399      	221.41739      	221.42555      	221.44057      	221.43318      	221.45192      	221.45212      	221.46681      	221.46808      	221.45891      	221.45287      	221.43523      	221.51715      	221.44995      	221.43864      	221.42865      	221.43115      	221.45158      	221.4195       	221.46394      	221.50293      	221.50227      	221.48233      	221.53065      	221.51166      	221.5095       	221.50279      	221.49701      	221.54092      	221.5341       	221.47589      	221.48196      	221.53912      	221.55936      	221.54503      	221.5057       	221.5314       	221.52612      	221.55203      	221.5515       	221.52351      	221.5351       	221.52806      	221.54042      	221.5275       	221.54698      	221.56314      	221.55315      	221.52531      	221.60614      	221.56122      	221.55292      	221.5523       	221.56659      	221.57376      	221.5904       	221.57071      	221.58434      	221.54413      	221.56316      	221.5762       	221.55856      	221.55394      	221.57445      	221.55621      	221.55502      	221.57095      	221.57195      	221.53616      	221.57516      	
220.60829      	220.6428       	220.59148      	220.63602      	220.63844      	220.62898      	220.63924      	220.67465      	220.70265      	220.66925      	220.68092      	220.68898      	220.68723      	220.68605      	220.6928       	220.74455      	220.73007      	220.7278       	220.73785      	220.74919      	220.73001      	220.71802      	220.78976      	220.75652      	220.74937      	220.78558      	220.76228      	220.80508      	220.78058      	220.78537      	220.7916       	220.77075      	220.80463      	220.80663      	220.80064      	220.81265      	220.80591      	220.81326      	220.81462      	220.82422      	220.79028      	220.8295       	220.81944      	220.80948      	220.83307      	220.84544      	220.86623      	220.86931      	220.8671       	220.85751      	220.89749      	220.88089      	220.89412      	220.89183      	220.90274      	220.98444      	220.89975      	220.9186       	220.94345      	220.87856      	220.91193      	220.92104      	220.91293      	220.90286      	220.92328      	220.9407       	220.94821      	220.96188      	220.9758       	220.94733      	220.98601      	220.97147      	220.96815      	221.00766      	221.01431      	221.00462      	221.02945      	221.03442      	220.99069      	221.07777      	221.03127      	220.9951       	221.01662      	221.03725      	221.0438       	221.03046      	221.02847      	221.01715      	221.04352      	221.03989      	221.02415      	221.04776      	221.04102      	221.06439      	221.02159      	221.04857      	221.07007      	221.07169      	221.02003      	221.05783      	
220.1744       	220.18178      	220.18251      	220.14317      	220.17294      	220.1643       	220.15236      	220.19318      	220.14206      	220.19179      	220.16183      	220.14969      	220.12354      	220.09793      	220.13417      	220.12468      	220.14627      	220.12909      	220.17946      	220.17937      	220.13461      	220.1581       	220.16519      	220.13365      	220.16689      	220.13747      	220.15115      	220.18443      	220.12914      	220.14096      	220.17361      	220.14568      	220.16434      	220.14377      	220.13853      	220.15721      	220.16544      	220.13647      	220.14021      	220.18515      	220.17097      	220.20676      	220.20459      	220.16629      	220.15129      	220.16505      	220.12587      	220.1318       	220.11076      	220.13046      	220.13141      	220.10345      	220.12541      	220.11882      	220.12094      	220.11824      	220.15266      	220.1167       	220.11473      	220.08922      	220.10568      	220.14435      	220.09227      	220.10207      	220.08261      	220.1205       	220.14565      	220.139        	220.13536      	220.13077      	220.14505      	220.16006      	220.16145      	220.17212      	220.1233       	220.15894      	220.12177      	220.15755      	220.16827      	220.16162      	220.18793      	220.17545      	220.18767      	220.18329      	220.20229      	220.18658      	220.18202      	220.16994      	220.20078      	220.17065      	220.17807      	220.18185      	220.18175      	220.22589      	220.21193      	220.18227      	220.17873      	220.21332      	220.18263      	220.21832      	
221.24512      	221.22478      	221.20773      	221.22867      	221.2184       	221.17453      	221.17606      	221.1658       	221.15959      	221.18555      	221.23373      	221.25502      	221.18582      	221.16983      	221.22737      	221.16205      	221.17331      	221.16574      	221.16226      	221.17247      	221.11697      	221.14569      	221.16756      	221.14998      	221.18488      	221.18292      	221.14139      	221.14566      	221.15804      	221.14447      	221.1472       	221.15298      	221.1046       	221.12926      	221.125        	221.12102      	221.12943      	221.11366      	221.10806      	221.12613      	221.09962      	221.09741      	221.1249       	221.09544      	221.06952      	221.09863      	221.05629      	221.0547       	221.06242      	221.04988      	221.02701      	221.03204      	221.02385      	221.02016      	221.02126      	220.99448      	221.01927      	221.00113      	220.95673      	220.9721       	220.96889      	220.95378      	220.92097      	220.94461      	220.9134       	220.9291       	220.87598      	220.9105       	220.89911      	220.87148      	220.88924      	220.86346      	220.84474      	220.82411      	220.81406      	220.83064      	220.80484      	220.7985       	220.7984       	220.7841       	220.81958      	220.78021      	220.76384      	220.75627      	220.73436      	220.76833      	220.7779       	220.71982      	220.74745      	220.72314      	220.72934      	220.73016      	220.71552      	220.69064      	220.66057      	220.69936      	220.6735       	220.6642       	220.65787      	220.65317      	
220.87955      	220.83855      	220.8135       	220.83455      	220.86452      	220.84396      	220.80626      	220.82733      	220.85635      	220.86974      	220.85358      	220.85289      	220.87392      	220.86606      	220.85446      	220.84415      	220.86009      	220.89621      	220.86758      	220.85172      	220.86966      	220.86841      	220.89731      	220.92079      	220.92747      	220.88982      	220.87189      	220.89749      	220.89903      	220.94125      	220.91197      	220.92325      	220.95009      	220.97043      	220.94205      	220.94388      	220.93517      	220.93536      	220.93251      	220.92491      	220.89119      	220.9214       	220.9125       	220.94687      	220.9158       	220.8985       	220.9352       	220.93382      	220.9218       	220.9392       	220.93031      	220.9141       	220.93158      	220.94955      	220.90796      	220.93698      	220.92747      	220.91771      	220.90158      	220.9285       	220.91322      	220.9362       	220.9275       	220.91513      	220.94159      	220.9455       	220.91626      	220.95187      	220.96951      	220.95566      	220.94046      	220.93776      	220.92441      	220.92108      	220.9545       	220.90475      	220.95001      	220.94508      	220.93808      	220.98685      	220.9733       	221.00536      	220.98053      	220.9646       	220.95523      	220.94662      	220.95221      	220.92548      	220.9519       	220.94969      	220.9284       	220.9444       	220.93434      	220.97015      	220.95724      	220.94786      	220.97453      	220.97464      	220.96362      	220.97409      	
220.35062      	220.3496       	220.37782      	220.36868      	220.34123      	220.34082      	220.38336      	220.3944       	220.35448      	220.37694      	220.40007      	220.3764       	220.38899      	220.38527      	220.36522      	220.3869       	220.39554      	220.43408      	220.43008      	220.39575      	220.43265      	220.43488      	220.40897      	220.39235      	220.42917      	220.39944      	220.43143      	220.43639      	220.4713       	220.47168      	220.46622      	220.47133      	220.45087      	220.46591      	220.46536      	220.48582      	220.51831      	220.49327      	220.49582      	220.5111       	220.48099      	220.49277      	220.51147      	220.47223      	220.50732      	220.49756      	220.48186      	220.52403      	220.48483      	220.49948      	220.48193      	220.51358      	220.53561      	220.51593      	220.51834      	220.52382      	220.5642       	220.52724      	220.51723      	220.53485      	220.55615      	220.55452      	220.55173      	220.54266      	220.56284      	220.56126      	220.58224      	220.58357      	220.58975      	220.58743      	220.61562      	220.6495       	220.6287       	220.63794      	220.60513      	220.6142       	220.61624      	220.57912      	220.6098       	220.59909      	220.59122      	220.58865      	220.59698      	220.62607      	220.62288      	220.61862      	220.59506      	220.60416      	220.61702      	220.5958       	220.58334      	220.64572      	220.63507      	220.64592      	220.66399      	220.63885      	220.62193      	220.65517      	220.64232      	220.63306      	
219.32584      	219.33087      	219.35403      	219.41327      	219.38425      	219.35995      	219.37831      	219.38094      	219.41249      	219.42049      	219.39395      	219.41953      	219.4086       	219.4287       	219.42087      	219.42606      	219.39955      	219.44135      	219.4551       	219.42506      	219.46324      	219.47203      	219.43582      	219.45807      	219.46281      	219.43492      	219.44598      	219.45091      	219.45724      	219.4612       	219.41432      	219.44424      	219.44827      	219.4372       	219.46951      	219.45001      	219.44943      	219.46695      	219.49478      	219.50987      	219.50165      	219.49081      	219.49515      	219.44922      	219.43777      	219.44287      	219.46808      	219.46097      	219.4524       	219.45468      	219.45679      	219.42267      	219.47005      	219.44936      	219.44313      	219.46405      	219.45891      	219.47879      	219.45729      	219.46835      	219.44777      	219.4454       	219.4714       	219.49547      	219.5065       	219.50464      	219.46353      	219.49489      	219.5001       	219.51302      	219.51764      	219.51912      	219.50807      	219.56868      	219.56708      	219.54684      	219.57437      	219.58719      	219.59915      	219.5773       	219.61081      	219.62645      	219.63226      	219.63675      	219.64151      	219.65543      	219.68753      	219.68968      	219.65517      	219.66658      	219.67332      	219.67833      	219.69472      	219.70605      	219.70241      	219.70395      	219.69449      	219.70128      	219.70541      	219.70204      	
219.60913      	219.56477      	219.59865      	219.59976      	219.5967       	219.61172      	219.59012      	219.59041      	219.61908      	219.57437      	219.59769      	219.56949      	219.57698      	219.61115      	219.55975      	219.5662       	219.57446      	219.5539       	219.5699       	219.57681      	219.58688      	219.58014      	219.56065      	219.54807      	219.5646       	219.5434       	219.53065      	219.56052      	219.57298      	219.56834      	219.58194      	219.57338      	219.55748      	219.5677       	219.58723      	219.55315      	219.53143      	219.55557      	219.5722       	219.57726      	219.52158      	219.46698      	219.49954      	219.48532      	219.46712      	219.48038      	219.4525       	219.48608      	219.49672      	219.52946      	219.5305       	219.51768      	219.47687      	219.50255      	219.48965      	219.49826      	219.49513      	219.49362      	219.48972      	219.4721       	219.46729      	219.46829      	219.48563      	219.47989      	219.44403      	219.50034      	219.49612      	219.492        	219.50809      	219.50374      	219.48093      	219.50626      	219.48778      	219.5032       	219.50038      	219.51898      	219.52158      	219.5477       	219.54572      	219.56442      	219.5477       	219.51735      	219.51987      	219.5298       	219.47093      	219.49414      	219.50543      	219.4894       	219.5181       	219.53629      	219.55534      	219.54588      	219.53209      	219.53331      	219.54149      	219.48227      	219.49257      	219.48549      	219.4975       	219.49706      	
219.87825      	219.82697      	219.86888      	219.83604      	219.85628      	219.84499      	219.86139      	219.87833      	219.87442      	219.85394      	219.8749       	219.88054      	219.83318      	219.85         	219.82892      	219.8077       	219.87042      	219.81186      	219.81079      	219.78139      	219.82903      	219.84059      	219.81093      	219.80397      	219.79102      	219.80507      	219.79045      	219.78328      	219.79892      	219.77084      	219.77489      	219.7742       	219.75768      	219.78006      	219.78157      	219.78224      	219.73868      	219.75954      	219.77866      	219.7659       	219.77614      	219.73627      	219.75612      	219.74731      	219.76486      	219.75426      	219.73026      	219.73022      	219.74567      	219.75624      	219.73392      	219.7434       	219.74567      	219.74666      	219.76189      	219.7359       	219.78099      	219.75726      	219.7408       	219.79568      	219.79778      	219.73822      	219.7281       	219.75475      	219.72694      	219.7433       	219.74564      	219.72281      	219.74448      	219.72412      	219.70207      	219.70828      	219.71259      	219.67426      	219.71019      	219.68471      	219.67511      	219.71349      	219.67813      	219.66307      	219.6666       	219.65405      	219.65755      	219.72198      	219.6692       	219.65097      	219.66081      	219.63278      	219.65277      	219.69058      	219.68605      	219.70114      	219.6926       	219.64365      	219.66103      	219.66986      	219.6623       	219.65585      	219.6726       	219.67589      	
220.38954      	220.39502      	220.3793       	220.38065      	220.37323      	220.34999      	220.38112      	220.36945      	220.34955      	220.34277      	220.36195      	220.36703      	220.40146      	220.3906       	220.3747       	220.38257      	220.35425      	220.36978      	220.35313      	220.36102      	220.35121      	220.35695      	220.32994      	220.34904      	220.36086      	220.33415      	220.35971      	220.33195      	220.34514      	220.33862      	220.32967      	220.32463      	220.31429      	220.32616      	220.31868      	220.31982      	220.30553      	220.30235      	220.32211      	220.29066      	220.29202      	220.30392      	220.30981      	220.28922      	220.29265      	220.30711      	220.31216      	220.26218      	220.31142      	220.29312      	220.33676      	220.30739      	220.30734      	220.32347      	220.29953      	220.31154      	220.33397      	220.31285      	220.27211      	220.25644      	220.27148      	220.25668      	220.2554       	220.2744       	220.20297      	220.21411      	220.26456      	220.2521       	220.24554      	220.27303      	220.26978      	220.27554      	220.25491      	220.29036      	220.27013      	220.26685      	220.27003      	220.28416      	220.29166      	220.291        	220.20213      	220.21281      	220.19899      	220.18228      	220.18723      	220.20245      	220.2041       	220.2037       	220.17259      	220.16953      	220.18872      	220.18182      	220.20096      	220.17603      	220.19034      	220.18631      	220.18459      	220.17186      	220.19977      	220.18517      	
220.56076      	220.56935      	220.60191      	220.58688      	220.5678       	220.56445      	220.61964      	220.59065      	220.58488      	220.53531      	220.57495      	220.53596      	220.57063      	220.55763      	220.53705      	220.59064      	220.58719      	220.56029      	220.55893      	220.57443      	220.55966      	220.55699      	220.54395      	220.57094      	220.58206      	220.57607      	220.57489      	220.54022      	220.5646       	220.56396      	220.55753      	220.54926      	220.59178      	220.57243      	220.60146      	220.59923      	220.60207      	220.60394      	220.54997      	220.58836      	220.59766      	220.59872      	220.56952      	220.56363      	220.57416      	220.53354      	220.53563      	220.56674      	220.56961      	220.57733      	220.59386      	220.5669       	220.55002      	220.52652      	220.51915      	220.53177      	220.54027      	220.5278       	220.54677      	220.57196      	220.55093      	220.5481       	220.5444       	220.54787      	220.5497       	220.51498      	220.55534      	220.56284      	220.52365      	220.53264      	220.58015      	220.49486      	220.49783      	220.51622      	220.51761      	220.5464       	220.5453       	220.54102      	220.52554      	220.53368      	220.54591      	220.52585      	220.5488       	220.55699      	220.60304      	220.61688      	220.57787      	220.5456       	220.59122      	220.52948      	220.55882      	220.54108      	220.53738      	220.53792      	220.53         	220.52945      	220.521        	220.5527       	220.53963      	220.55142      	
220.5625       	220.55463      	220.60394      	220.60287      	220.63997      	220.59172      	220.58098      	220.51814      	220.5779       	220.61703      	220.60434      	220.6049       	220.5976       	220.56273      	220.55328      	220.56268      	220.54042      	220.59964      	220.54034      	220.55925      	220.57161      	220.56935      	220.5774       	220.57614      	220.53825      	220.54185      	220.56354      	220.56404      	220.5612       	220.56345      	220.53087      	220.53769      	220.56175      	220.5736       	220.58556      	220.57983      	220.56468      	220.59758      	220.62492      	220.5864       	220.57625      	220.58032      	220.55783      	220.5734       	220.57272      	220.59116      	220.56242      	220.60202      	220.5997       	220.60123      	220.62747      	220.59798      	220.59775      	220.60376      	220.59674      	220.62027      	220.59041      	220.61337      	220.58691      	220.63394      	220.6019       	220.60788      	220.63606      	220.61671      	220.57364      	220.58147      	220.58838      	220.57245      	220.57855      	220.58849      	220.58112      	220.572        	220.58301      	220.57292      	220.51834      	220.57455      	220.56842      	220.57509      	220.56284      	220.53302      	220.57399      	220.52809      	220.5303       	220.57349      	220.59152      	220.55827      	220.548        	220.52814      	220.56398      	220.54343      	220.55936      	220.52448      	220.5348       	220.54794      	220.54636      	220.50734      	220.51825      	220.53104      	220.53613      	220.53229      	
220.33618      	220.29134      	220.28581      	220.28497      	220.30876      	220.32823      	220.33104      	220.31656      	220.33723      	220.28166      	220.27255      	220.29124      	220.30922      	220.31161      	220.34056      	220.32343      	220.32918      	220.32504      	220.30031      	220.3356       	220.32014      	220.29672      	220.31616      	220.30276      	220.31273      	220.35175      	220.36469      	220.31798      	220.32568      	220.34326      	220.33542      	220.34279      	220.3386       	220.34166      	220.41602      	220.39284      	220.39314      	220.38103      	220.38573      	220.34473      	220.3738       	220.3457       	220.33766      	220.34364      	220.33698      	220.37314      	220.37067      	220.3804       	220.34007      	220.27402      	220.34334      	220.35808      	220.41092      	220.40335      	220.40895      	220.41185      	220.41478      	220.43509      	220.4221       	220.38734      	220.40318      	220.36954      	220.38199      	220.4094       	220.39597      	220.38753      	220.40622      	220.42268      	220.37263      	220.41396      	220.41718      	220.40314      	220.43015      	220.42383      	220.42064      	220.40486      	220.42096      	220.43132      	220.4107       	220.44281      	220.44394      	220.44594      	220.4412       	220.44142      	220.46555      	220.44257      	220.46794      	220.47035      	220.46097      	220.4553       	220.45448      	220.4773       	220.47838      	220.47939      	220.50157      	220.48453      	220.45668      	220.48825      	220.51926      	220.46617      	
220.226        	220.21921      	220.2051       	220.19376      	220.21088      	220.20192      	220.1843       	220.17532      	220.18922      	220.21338      	220.14496      	220.18465      	220.15398      	220.18216      	220.18367      	220.14153      	220.13297      	220.14209      	220.14732      	220.13876      	220.15823      	220.13577      	220.09953      	220.11827      	220.11737      	220.09483      	220.11574      	220.08046      	220.08266      	220.08759      	220.10402      	220.10861      	220.08253      	220.05429      	220.07274      	220.08415      	220.03517      	220.05975      	220.03937      	220.05968      	220.05557      	220.0445       	220.06598      	220.0401       	220.07025      	220.06451      	220.02309      	220.06956      	220.04909      	220.01671      	220.02078      	220.0563       	220.04329      	220.04855      	220.0568       	220.04393      	220.05998      	220.03899      	220.08444      	220.08015      	220.02994      	220.0489       	220.04044      	220.02464      	220.03957      	220.08131      	220.0307       	220.03891      	220.06215      	220.0263       	220.016        	220.014        	220.01901      	220.0083       	220.01474      	220.0173       	220.01926      	220.02228      	219.99886      	219.99406      	220.05685      	220.05853      	220.04924      	220.02933      	220.00278      	220.01639      	220.0117       	220.0349       	220.00967      	220.01831      	220.03656      	220.0695       	220.04532      	220.03307      	220.072        	220.04648      	220.03532      	220.02826      	220.03296      	220.03465      	
221.43578      	221.428        	221.44044      	221.45142      	221.46045      	221.45451      	221.4661       	221.43082      	221.40208      	221.4169       	221.42377      	221.38998      	221.4113       	221.3849       	221.37482      	221.37067      	221.38434      	221.33656      	221.34145      	221.37515      	221.37605      	221.35956      	221.33792      	221.3374       	221.34431      	221.3207       	221.31854      	221.3137       	221.28728      	221.26195      	221.28151      	221.29857      	221.27292      	221.30403      	221.29642      	221.2401       	221.27992      	221.25993      	221.2359       	221.20769      	221.23929      	221.24243      	221.24164      	221.21275      	221.16795      	221.1824       	221.18121      	221.15471      	221.13406      	221.1789       	221.13397      	221.14023      	221.15302      	221.14044      	221.1151       	221.08487      	221.08861      	221.10033      	221.07512      	221.0982       	221.06863      	221.0895       	221.09636      	221.11028      	221.07663      	221.04433      	220.9844       	221.00417      	221.00098      	221.01476      	221.01172      	221.00348      	220.98907      	220.97621      	221.00555      	220.96523      	220.92064      	220.90652      	220.89662      	220.88217      	220.91725      	220.89407      	220.90729      	220.90398      	220.87068      	220.87817      	220.88364      	220.86754      	220.85902      	220.87619      	220.85484      	220.78766      	220.82077      	220.77542      	220.7862       	220.8117       	220.78914      	220.77985      	220.75394      	220.76474      	
221.79645      	221.76651      	221.81467      	221.7818       	221.81233      	221.81175      	221.81178      	221.81398      	221.78906      	221.83057      	221.8287       	221.83041      	221.81421      	221.78807      	221.82603      	221.82658      	221.80777      	221.82161      	221.80247      	221.82852      	221.83255      	221.84938      	221.82516      	221.83641      	221.85141      	221.84929      	221.82999      	221.87958      	221.85435      	221.86688      	221.86664      	221.92068      	221.9037       	221.89081      	221.89847      	221.87518      	221.86148      	221.85155      	221.89925      	221.86417      	221.88641      	221.89038      	221.84799      	221.83669      	221.86214      	221.8597       	221.87402      	221.86345      	221.89871      	221.86583      	221.89061      	221.8569       	221.86588      	221.88753      	221.87242      	221.8606       	221.8664       	221.85458      	221.89157      	221.86264      	221.8925       	221.86476      	221.84634      	221.86842      	221.87346      	221.86444      	221.87209      	221.87572      	221.85051      	221.87712      	221.88309      	221.86638      	221.91171      	221.9186       	221.8941       	221.88869      	221.91241      	221.88832      	221.89673      	221.85349      	221.8786       	221.91238      	221.89845      	221.92393      	221.9235       	221.90828      	221.91357      	221.91159      	221.90536      	221.91023      	221.91293      	221.91545      	221.91222      	221.91586      	221.91476      	221.89757      	221.89526      	221.8999       	221.90114      	221.87445      	
221.50282      	221.51059      	221.5323       	221.54091      	221.54872      	221.52855      	221.55103      	221.54416      	221.51611      	221.58267      	221.5434       	221.55112      	221.56052      	221.5475       	221.57715      	221.57013      	221.56229      	221.5443       	221.51375      	221.55716      	221.53806      	221.57195      	221.54706      	221.55472      	221.5826       	221.54997      	221.54921      	221.58405      	221.56085      	221.59474      	221.60269      	221.57387      	221.6101       	221.61217      	221.59048      	221.59967      	221.5845       	221.57492      	221.59239      	221.62389      	221.64255      	221.67226      	221.66936      	221.66013      	221.61685      	221.60326      	221.63704      	221.65683      	221.62184      	221.63191      	221.6288       	221.61542      	221.65614      	221.6508       	221.62743      	221.64331      	221.64015      	221.6509       	221.68478      	221.64247      	221.63022      	221.62875      	221.61964      	221.63257      	221.64935      	221.60765      	221.61922      	221.63718      	221.64809      	221.67133      	221.67564      	221.64478      	221.63275      	221.63205      	221.67332      	221.67943      	221.68898      	221.67763      	221.64868      	221.64143      	221.65407      	221.72401      	221.64818      	221.61717      	221.62418      	221.63507      	221.60724      	221.64273      	221.6077       	221.64722      	221.57764      	221.63043      	221.65526      	221.6664       	221.69955      	221.67969      	221.62355      	221.58572      	221.61893      	221.64684      	
220.99146      	220.99557      	220.99107      	221.02277      	220.95985      	220.96826      	220.96646      	220.923        	220.99959      	220.98044      	220.95135      	220.9896       	220.97844      	220.97472      	220.98297      	220.9926       	220.95598      	220.97452      	220.97517      	220.99059      	220.98584      	221.01085      	221.02971      	221.04425      	221.01837      	221.01938      	221.06404      	221.0224       	221.01343      	221.04803      	221.02084      	221.0244       	221.04378      	221.04361      	221.10544      	221.13988      	221.10573      	221.0818       	221.134        	221.12904      	221.09488      	221.1173       	221.04648      	221.12352      	221.11832      	221.12802      	221.17596      	221.12779      	221.15382      	221.15794      	221.1734       	221.1607       	221.18663      	221.10492      	221.15143      	221.17079      	221.13446      	221.19905      	221.23412      	221.19913      	221.18295      	221.18414      	221.19531      	221.17706      	221.18517      	221.17146      	221.21642      	221.19643      	221.2186       	221.19371      	221.20804      	221.21259      	221.19516      	221.18369      	221.18007      	221.21715      	221.19736      	221.16496      	221.20335      	221.22482      	221.20174      	221.21873      	221.22589      	221.20119      	221.17064      	221.16412      	221.19847      	221.21042      	221.12238      	220.95033      	220.9802       	220.9757       	221.0076       	221.05194      	221.02785      	221.0459       	221.0309       	221.08063      	221.09091      	221.10204      	
220.28442      	220.30582      	220.27585      	220.28241      	220.3042       	220.28358      	220.29964      	220.28421      	220.27992      	220.29655      	220.30649      	220.33214      	220.26944      	220.29509      	220.23251      	220.30078      	220.27853      	220.23593      	220.30649      	220.29199      	220.274        	220.31839      	220.3556       	220.33821      	220.35715      	220.35661      	220.4068       	220.39069      	220.24342      	220.45265      	220.39331      	220.37091      	220.32985      	220.30078      	220.27745      	220.4879       	220.38075      	220.33235      	220.32266      	220.29526      	220.26529      	220.27611      	220.25864      	220.22401      	220.32858      	220.28491      	220.3012       	220.27724      	220.24384      	220.29478      	220.23949      	220.21466      	220.28554      	220.34406      	220.34853      	220.28621      	220.3369       	220.3759       	220.40942      	220.46599      	220.49301      	220.49149      	220.49948      	220.52937      	220.53621      	220.5424       	220.52406      	220.51366      	220.5004       	220.51144      	220.55371      	220.52744      	220.56326      	220.53477      	220.53978      	220.57489      	220.54039      	220.59668      	220.5593       	220.59238      	220.58615      	220.56638      	220.59586      	220.5783       	220.58162      	220.56682      	220.58977      	220.61685      	220.54793      	220.42435      	220.51604      	220.5668       	220.57144      	220.57864      	220.5835       	220.5869       	220.56232      	220.5875       	220.58786      	220.59605      	
220.20177      	220.18668      	220.15724      	220.16397      	220.14456      	220.1755       	220.16989      	220.15813      	220.14944      	220.16354      	220.1552       	220.15941      	220.17432      	220.18515      	220.16238      	220.20827      	220.12653      	220.12036      	220.1535       	220.10355      	220.13484      	220.09964      	220.11264      	220.04437      	220.01033      	220.05612      	219.912        	219.85188      	219.95825      	220.02841      	219.99994      	220.00072      	220.07777      	220.00377      	220.02261      	220.03131      	219.99823      	220.02391      	220.00642      	220.00192      	220.01862      	220.03474      	220.0163       	220.02408      	220.02882      	220.01967      	220.03807      	220.01234      	220.02371      	220.02032      	219.99675      	220.02132      	219.99686      	219.99216      	219.98772      	219.97963      	219.98245      	219.99313      	220.03148      	219.94685      	220.06586      	220.06673      	220.04633      	220.03287      	220.07281      	220.03629      	220.03185      	220.03899      	220.02304      	220.02567      	220.04752      	220.05048      	220.0281       	220.07632      	220.01865      	220.04482      	220.06876      	220.04842      	220.05191      	220.05753      	220.02206      	220.07526      	220.05411      	220.04898      	220.0322       	219.94264      	219.87135      	219.87125      	219.81264      	219.79745      	219.8225       	219.79898      	219.80661      	219.83064      	219.78477      	219.79572      	219.8623       	219.87389      	219.8348       	219.90567      	
220.15623      	220.18991      	220.21771      	220.17857      	220.2212       	220.20367      	220.20189      	220.195        	220.22241      	220.22354      	220.22552      	220.22298      	220.21881      	220.24298      	220.2147       	220.21135      	220.24146      	220.20541      	220.21686      	220.21909      	220.24257      	220.22105      	220.206        	220.20654      	220.21739      	220.06284      	220.04767      	220.01651      	220.09552      	220.20041      	220.19019      	220.20297      	220.21704      	220.19223      	220.22104      	220.20343      	220.2055       	220.24762      	220.2341       	220.16849      	220.20737      	220.19888      	220.1904       	220.20288      	220.18935      	220.17833      	220.16577      	220.16867      	220.2123       	220.18289      	220.18674      	220.18889      	220.15897      	220.16724      	220.20999      	220.1494       	220.14633      	220.16107      	220.24344      	220.27515      	220.19109      	220.1534       	220.19319      	220.1988       	220.19215      	220.20966      	220.18454      	220.21086      	220.20993      	220.22919      	220.21442      	220.25706      	220.29881      	220.26334      	220.24953      	220.25098      	220.29239      	220.26161      	220.23158      	220.25066      	220.30598      	220.31671      	220.2958       	220.28885      	220.27219      	220.28891      	220.24136      	220.12434      	220.0856       	220.0998       	220.22192      	220.23134      	220.14459      	220.13661      	220.17732      	220.18275      	220.14096      	220.14513      	220.1398       	220.16922      	
219.99574      	220.01283      	220.04948      	220.01596      	219.98047      	220.0217       	220.01439      	220.01454      	220.01341      	220.02853      	220.03925      	219.93158      	219.9877       	219.98631      	219.97575      	219.98103      	220.01491      	220.00519      	220.03033      	219.99332      	219.973        	219.95944      	219.98224      	219.9512       	219.9494       	219.98721      	219.94327      	219.72852      	219.87978      	219.94872      	219.9047       	219.96045      	219.95087      	219.92546      	219.94073      	219.88971      	219.90343      	219.92294      	219.91371      	219.92923      	219.94637      	219.96346      	219.95334      	219.97144      	219.9662       	219.94817      	219.93945      	219.91249      	219.95529      	219.97209      	219.92538      	219.96254      	219.97586      	219.96819      	219.9933       	220.00177      	219.98758      	219.99455      	220.00212      	219.94783      	220.00229      	220.03369      	220.02663      	220.00722      	220.00699      	220.0021       	219.991        	219.99452      	219.94986      	219.95874      	219.95558      	219.98553      	220.00293      	219.96774      	219.93845      	219.91107      	219.9476       	219.95306      	219.93878      	219.93857      	219.89127      	219.92284      	219.865        	219.93651      	219.867        	219.81299      	219.79398      	219.86263      	219.86977      	219.68056      	219.80174      	219.8524       	219.80257      	219.80836      	219.83144      	219.84496      	219.83984      	219.81844      	219.79411      	219.86166      	
220.11604      	220.1677       	220.12135      	220.1633       	220.12033      	220.11147      	220.13808      	220.1113       	220.10072      	220.10278      	220.11816      	220.13316      	220.02602      	219.98859      	219.96596      	219.98616      	219.98093      	219.97043      	220.00206      	220.00636      	220.06625      	220.12001      	220.05963      	220.10745      	220.00563      	219.90926      	219.89185      	219.92155      	219.99706      	220.05324      	220.09277      	220.09036      	220.10329      	220.11244      	220.08789      	220.02911      	220.03677      	220.06358      	220.04808      	220.03027      	220.03255      	220.06686      	220.05707      	220.01797      	219.95746      	219.86757      	219.8505       	219.83772      	219.84657      	219.81789      	219.86502      	219.86443      	219.87213      	219.91151      	219.99469      	220.00186      	219.96378      	220.02481      	219.92734      	219.83609      	219.85303      	219.86732      	219.90828      	219.87685      	219.88792      	219.89874      	219.9287       	219.90022      	219.93729      	219.90623      	219.87137      	219.84093      	219.84926      	219.79349      	219.80832      	219.78842      	219.79224      	219.83063      	219.84186      	219.8795       	219.87744      	219.84242      	219.86546      	219.89719      	219.93153      	219.88493      	219.88914      	219.88675      	219.81036      	219.61453      	219.7299       	219.81747      	219.81114      	219.87265      	219.89243      	219.86778      	219.84337      	219.87312      	219.85938      	219.8688       	
